timestamp,x,y,z,yaw,yawspeed,vx,vy,vz,acc_x,acc_y,acc_z,jerk_x,jerk_y,jerk_z,thrust[0],thrust[1],thrust[2]
2480612559,0.0,0.0,0.0,0.047121413,0.0,0.0,0.0,0.0,0.0,0.0,0.0,0.0,0.0,0.0,0.0,0.0,0.0
2480716425,0.0,0.0,0.0,0.04748342,0.0,0.0,0.0,0.0,0.0,0.0,0.0,0.0,0.0,0.0,0.0,0.0,0.0
2480813100,0.0,0.0,0.0,0.047236536,0.0,0.0,0.0,0.0,0.0,0.0,0.0,0.0,0.0,0.0,0.0,0.0,0.0
2480917103,0.0,0.0,0.0,0.047492612,0.0,0.0,0.0,0.0,0.0,0.0,0.0,0.0,0.0,0.0,0.0,0.0,0.0
2481022331,0.0,0.0,0.0,0.047144312,0.0,0.0,0.0,0.0,0.0,0.0,0.0,0.0,0.0,0.0,0.0,0.0,0.0
2481125218,0.0,0.0,0.0,0.04711163,0.0,0.0,0.0,0.0,0.0,0.0,0.0,0.0,0.0,0.0,0.0,0.0,0.0
2481222783,0.0,0.0,0.0,0.046674557,0.0,0.0,0.0,0.0,0.0,0.0,0.0,0.0,0.0,0.0,0.0,0.0,0.0
2481326056,0.0,0.0,0.0,0.04703036,0.0,0.0,0.0,0.0,0.0,0.0,0.0,0.0,0.0,0.0,0.0,0.0,0.0
2481429917,0.0,0.0,0.0,0.04673182,0.0,0.0,0.0,0.0,0.0,0.0,0.0,0.0,0.0,0.0,0.0,0.0,0.0
2481526152,0.0,0.0,0.0,0.046885934,0.0,0.0,0.0,0.0,0.0,0.0,0.0,0.0,0.0,0.0,0.0,0.0,0.0
2481630702,0.0,0.0,0.0,0.047044747,0.0,0.0,0.0,0.0,0.0,0.0,0.0,0.0,0.0,0.0,0.0,0.0,0.0
2481734802,0.0,0.0,0.0,0.04752104,0.0,0.0,0.0,0.0,0.0,0.0,0.0,0.0,0.0,0.0,0.0,0.0,0.0
2481830848,0.0,0.0,0.0,0.047516808,0.0,0.0,0.0,0.0,0.0,0.0,0.0,0.0,0.0,0.0,0.0,0.0,0.0
2481934705,0.0,0.0,0.0,0.04761375,0.0,0.0,0.0,0.0,0.0,0.0,0.0,0.0,0.0,0.0,0.0,0.0,0.0
2482039624,0.0,0.0,0.0,0.047595564,0.0,0.0,0.0,0.0,0.0,0.0,0.0,0.0,0.0,0.0,0.0,0.0,0.0
2482135496,0.0,0.0,0.0,0.04786294,0.0,0.0,0.0,0.0,0.0,0.0,0.0,0.0,0.0,0.0,0.0,0.0,0.0
2482240352,0.23419367,-0.9551229,0.0,0.04814508,0.0,-0.00019933209,-0.0022158264,-0.07013058,0.0,0.0,0.0,0.0,0.0,0.0,-0.0010079674,-0.0030440104,-0.3915841
2482340590,0.23419367,-0.9551229,0.0,0.048480798,0.0,-0.0019378997,-0.0053240536,-0.82186973,0.0,0.0,0.0,0.0,0.0,0.0,-0.0023558703,-0.004968591,-0.59733164
2482444605,0.23419367,-0.9551229,0.0,0.051748965,0.0,-0.0047083623,-0.009279382,-1.6019814,0.0,0.0,0.0,0.0,0.0,0.0,-0.004457525,-0.009476626,-0.70970523
2482540471,0.23419367,-0.9551229,0.0,0.054634843,0.0,-0.007968272,-0.01658999,-2.3209767,0.0,0.0,0.0,0.0,0.0,0.0,-0.005224982,-0.022678435,-0.74542546
2482644447,0.23419367,-0.9551229,0.0,0.047541544,-0.0,-0.009377994,-0.034117624,-3.0,0.0,0.0,0.0,0.0,0.0,0.0,0.0039249104,-0.036886122,-0.74390686
2482749158,0.23419367,-0.9551229,0.0,0.047541544,-0.0,-0.006750819,-0.06242077,-2.5467188,0.0,0.0,0.0,0.0,0.0,0.0,0.0063314415,-0.03818883,-0.43860492
2482845168,0.23419367,-0.9551229,0.0,0.047541544,0.0,-0.0022712194,-0.0906015,-1.8936381,0.0,0.0,0.0,0.0,0.0,0.0,0.004543345,-0.039288353,-0.22356483
2482949074,0.23419367,-0.9551229,0.0,0.047541544,0.0,0.005303754,-0.11885804,-1.2797825,0.0,0.0,0.0,0.0,0.0,0.0,0.0025316635,-0.038518313,-0.12
2483053667,0.0,0.0,0.0,0.047541544,0.0,0.25682056,0.014256483,-0.8205054,0.0,0.0,0.0,0.0,0.0,0.0,0.027248835,-0.0142631205,-0.12
2483150203,0.0,0.0,0.0,0.047541544,-0.0,0.63444793,0.077931546,-0.8126987,0.0,0.0,0.0,0.0,0.0,0.0,0.057862263,-0.0011268519,-0.25063944
2483254069,0.0,0.0,0.0,0.047541544,-0.0,1.0026675,0.14328241,-0.8223705,0.0,0.0,0.0,0.0,0.0,0.0,0.079312146,0.0049611954,-0.3646129
2483358053,0.0,0.0,0.0,0.047541544,-0.0,1.3483738,0.20629615,-0.820191,0.0,0.0,0.0,0.0,0.0,0.0,0.098550744,0.016950453,-0.42342237
2483453893,0.0,0.0,0.0,0.047541544,0.0,1.6452285,0.28655082,-0.8203734,0.0,0.0,0.0,0.0,0.0,0.0,0.10525631,0.008540644,-0.45479652
2483560036,0.0,0.0,0.0,0.13094795,0.0,1.942332,0.39965305,-0.8189095,0.0,0.0,0.0,0.0,0.0,0.0,0.117771156,0.009027583,-0.47072327
2483662847,0.0,0.0,0.0,0.13094795,0.0,2.1936085,0.5470783,-0.8205681,0.0,0.0,0.0,0.0,0.0,0.0,0.11723384,0.0063371994,-0.46388084
2483758877,0.0,0.0,0.0,0.13094795,0.0,2.411268,0.68531847,-0.82184565,0.0,0.0,0.0,0.0,0.0,0.0,0.12693124,0.015380897,-0.4618541
2483862799,0.0,0.0,0.0,0.13094795,-0.0,2.6362677,0.83258003,-0.8201843,0.0,0.0,0.0,0.0,0.0,0.0,0.13655776,0.023821225,-0.44785553
2483968937,0.0,0.0,0.0,0.13094795,-0.0,2.8623588,0.9725616,-0.8203722,0.0,0.0,0.0,0.0,0.0,0.0,0.14262883,0.027698891,-0.44285107
2484064555,0.0,0.0,0.0,0.13094795,-0.0,3.0685432,1.0934845,-0.82037616,0.0,0.0,0.0,0.0,0.0,0.0,0.14347196,0.032890953,-0.44256705
2484168715,0.0,0.0,0.0,0.13094795,0.0,3.2987044,1.2148513,-0.82037616,0.0,0.0,0.0,0.0,0.0,0.0,0.14311516,0.031700965,-0.45497158
2484268491,0.0,0.0,0.0,0.13094795,0.0,3.521755,1.3269429,-0.82037616,0.0,0.0,0.0,0.0,0.0,0.0,0.1476739,0.03727312,-0.45728326
2484373720,0.0,0.0,0.0,0.13094795,0.0,3.7576435,1.4434049,-0.82037616,0.0,0.0,0.0,0.0,0.0,0.0,0.14940763,0.03290411,-0.44900066
2484476585,0.0,0.0,0.0,0.13094795,0.0,3.9891207,1.5550808,-0.82037616,0.0,0.0,0.0,0.0,0.0,0.0,0.15112676,0.03851803,-0.45148453
2484573439,0.0,0.0,0.0,0.13094795,-0.0,4.207764,1.6594042,-0.82037616,0.0,0.0,0.0,0.0,0.0,0.0,0.15610142,0.039132245,-0.45852315
2484676333,0.0,0.0,0.0,0.13094795,-0.0,4.4399223,1.7702552,-0.82037616,0.0,0.0,0.0,0.0,0.0,0.0,0.15644948,0.03542956,-0.44850242
2484781103,0.0,0.0,0.0,0.13094795,-0.0,4.6750607,1.8856041,-0.8206059,0.0,0.0,0.0,0.0,0.0,0.0,0.17197207,0.045442995,-0.4421608
2484877156,0.0,0.0,0.0,0.13094795,0.0,4.8893733,1.9939222,-0.82038975,0.0,0.0,0.0,0.0,0.0,0.0,0.17018548,0.045563,-0.45263574
2484981206,0.0,0.0,0.0,0.13094795,0.0,5.1203876,2.1135268,-0.82037663,0.0,0.0,0.0,0.0,0.0,0.0,0.16252229,0.050773382,-0.45564052
2485077063,0.0,0.0,0.0,0.13094795,0.0,5.3324046,2.2252169,-0.82037616,0.0,0.0,0.0,0.0,0.0,0.0,0.16832325,0.057229586,-0.45340872
2485183291,0.0,0.0,0.0,0.13094795,0.0,5.5675216,2.3483202,-0.8218429,0.0,0.0,0.0,0.0,0.0,0.0,0.16696876,0.054139324,-0.46181524
2485285890,0.0,0.0,0.0,0.13094795,-0.0,5.7961836,2.4649284,-0.8201843,0.0,0.0,0.0,0.0,0.0,0.0,0.17843336,0.06036904,-0.45435515
2485389983,0.0,0.0,0.0,0.13094795,-0.0,6.029031,2.5811045,-0.8203722,0.0,0.0,0.0,0.0,0.0,0.0,0.17789833,0.060801268,-0.4582671
2485486788,0.0,0.0,0.0,0.13094795,-0.0,6.245527,2.6892846,-0.82037616,0.0,0.0,0.0,0.0,0.0,0.0,0.17979269,0.06440084,-0.4555612
2485591883,0.0,0.0,0.0,0.13094795,0.0,6.4810925,2.8053634,-0.8199785,0.0,0.0,0.0,0.0,0.0,0.0,0.17413783,0.069051795,-0.4479122
2485694767,0.0,0.0,0.0,0.13094795,0.0,6.7138724,2.9150274,-0.82038975,0.0,0.0,0.0,0.0,0.0,0.0,0.18880822,0.07034884,-0.44649616
2485791803,0.0,0.0,0.0,0.13094795,0.0,6.940342,3.0019186,-0.82037616,0.0,0.0,0.0,0.0,0.0,0.0,0.19253398,0.06599759,-0.44622308
2485895622,0.0,0.0,0.0,0.13094795,0.0,7.1843414,3.090385,-0.81566465,0.0,0.0,0.0,0.0,0.0,0.0,0.1981316,0.07025911,-0.44737744
2485992580,0.0,0.0,0.0,0.13094795,0.0,7.4065547,3.1868486,-0.8207755,0.0,0.0,0.0,0.0,0.0,0.0,0.20203552,0.07944344,-0.4609834
2486095658,0.0,0.0,0.0,0.13094795,0.0,7.639308,3.2974553,-0.82036984,0.0,0.0,0.0,0.0,0.0,0.0,0.20071143,0.07684524,-0.45828837
2486199448,0.0,0.0,0.0,0.13094795,0.0,7.8737316,3.408658,-0.8203758,0.0,0.0,0.0,0.0,0.0,0.0,0.19435585,0.08231313,-0.46126634
2486296287,0.0,0.0,0.0,0.13094795,0.0,8.092478,3.5124173,-0.8218429,0.0,0.0,0.0,0.0,0.0,0.0,0.20781273,0.08030176,-0.46095973
2486401543,0.0,0.0,0.0,0.13094795,0.0,8.330055,3.6251092,-0.8201843,0.0,0.0,0.0,0.0,0.0,0.0,0.20761204,0.08510464,-0.4556694
2486504429,0.0,0.0,0.0,0.13094795,0.0,8.563224,3.7341225,-0.82037306,0.0,0.0,0.0,0.0,0.0,0.0,0.21343017,0.091589116,-0.46319807
2486601684,0.0,0.0,0.0,0.13094795,-0.0,8.78223,3.8386667,-0.82037616,0.0,0.0,0.0,0.0,0.0,0.0,0.21841049,0.10028878,-0.4751245
2486705200,0.0,0.0,0.0,0.13094795,-0.0,9.007458,3.9664993,-0.82037616,0.0,0.0,0.0,0.0,0.0,0.0,0.22029749,0.09993368,-0.4801147
2486809115,0.0,0.0,0.0,0.13094795,-0.0,9.140588,4.055815,-0.82037616,0.0,0.0,0.0,0.0,0.0,0.0,0.2159701,0.09793304,-0.4750828
2486905133,0.0,0.0,0.0,0.13094795,0.0,9.140593,4.0558066,-0.82037616,0.0,0.0,0.0,0.0,0.0,0.0,0.19873255,0.092384875,-0.48261163
2487010220,0.0,0.0,0.0,0.13094795,0.0,9.137098,4.063673,-0.82037616,0.0,0.0,0.0,0.0,0.0,0.0,0.18957129,0.08303026,-0.48276475
2487109939,0.0,0.0,0.0,0.13094795,0.0,9.12402,4.0929527,-0.82037616,0.0,0.0,0.0,0.0,0.0,0.0,0.18400383,0.08644542,-0.48562557
2487214598,0.0,0.0,0.0,0.13094795,-0.0,9.095255,4.156481,-1.249341,0.0,0.0,0.0,0.0,0.0,0.0,0.16110194,0.08619889,-0.6041063
2487318953,0.0,0.0,0.0,0.13094795,-0.0,9.100151,4.145752,-1.8007629,0.0,0.0,0.0,0.0,0.0,0.0,0.15366045,0.074668154,-0.688386
2487422619,0.0,0.0,0.0,0.13094795,-0.0,9.134497,4.069518,-1.8001926,0.0,0.0,0.0,0.0,0.0,0.0,0.15602408,0.0602168,-0.55125827
2487522729,0.0,0.0,0.0,0.13094795,0.0,9.140724,4.05551,-1.8001432,0.0,0.0,0.0,0.0,0.0,0.0,0.15121745,0.06550199,-0.4767188
2487628998,0.0,0.0,0.0,0.13094795,0.0,9.130004,4.079588,-1.8003714,0.0,0.0,0.0,0.0,0.0,0.0,0.16235356,0.06802721,-0.47237828
2487730717,0.0,0.0,0.0,0.13094795,0.0,9.132833,4.0732493,-1.8050973,0.0,0.0,0.0,0.0,0.0,0.0,0.1526478,0.066003226,-0.48478118
2487827780,0.0,0.0,0.0,0.13094795,0.0,9.133862,4.070943,-1.7995524,0.0,0.0,0.0,0.0,0.0,0.0,0.14885105,0.055072606,-0.4922157
2487931588,0.0,0.0,0.0,0.13094795,-0.0,9.140532,4.0559444,-1.8001354,0.0,0.0,0.0,0.0,0.0,0.0,0.14247054,0.065409526,-0.49564132
2488037252,0.0,0.0,0.0,0.13094795,-0.0,9.14941,4.0358753,-1.8003727,0.0,0.0,0.0,0.0,0.0,0.0,0.13260739,0.065618604,-0.5013879
2488140361,0.0,0.0,0.0,0.13094795,-0.0,9.147765,4.0396037,-1.8001553,0.0,0.0,0.0,0.0,0.0,0.0,0.13455218,0.06396348,-0.50190395
2488237072,0.0,0.0,0.0,0.13094795,0.0,9.138666,4.060145,-1.8001423,0.0,0.0,0.0,0.0,0.0,0.0,0.132575,0.06911516,-0.50084305
2488341446,0.0,0.0,0.0,0.13094795,0.0,9.121547,4.0984616,-1.8026054,0.0,0.0,0.0,0.0,0.0,0.0,0.12662412,0.06862231,-0.49104106
2488444404,0.0,0.0,0.0,0.13094795,0.0,9.115152,4.1126614,-1.7967064,0.0,0.0,0.0,0.0,0.0,0.0,0.1336758,0.07078976,-0.49141717
2488541394,0.0,0.0,0.0,0.13094795,-0.0,9.11331,4.116744,-1.8003328,0.0,0.0,0.0,0.0,0.0,0.0,0.12832557,0.06781866,-0.49709657
2488645366,0.0,0.0,0.0,0.13094795,-0.0,9.114111,4.1149707,-1.8001453,0.0,0.0,0.0,0.0,0.0,0.0,0.12916179,0.06494789,-0.50343555
2488749096,0.0,0.0,0.0,0.13094795,-0.0,9.119984,4.1019373,-1.8001417,0.0,0.0,0.0,0.0,0.0,0.0,0.12700419,0.065499894,-0.5019953
2488845268,0.0,0.0,0.0,0.13094795,0.0,9.121341,4.0989194,-1.8001413,0.0,0.0,0.0,0.0,0.0,0.0,0.1227076,0.06993304,-0.49252054
2488950218,0.0,0.0,0.0,0.13094795,0.0,9.152256,4.0294194,-1.8036171,0.0,0.0,0.0,0.0,0.0,0.0,0.12460986,0.04691751,-0.48443022
2489053989,0.0,0.0,0.0,0.13094795,0.0,9.22392,3.8625512,-1.8001485,0.0,0.0,0.0,0.0,0.0,0.0,0.13236082,0.045769162,-0.4992016
2489150016,0.0,0.0,0.0,0.13094795,-0.0,9.215384,3.8828726,-1.800141,0.0,0.0,0.0,0.0,0.0,0.0,0.1302746,0.047103778,-0.50532496
2489253860,0.0,0.0,0.0,0.13094795,-0.0,9.198573,3.9225302,-1.8001413,0.0,0.0,0.0,0.0,0.0,0.0,0.12540114,0.052963197,-0.5137545
2489359245,0.0,0.0,0.0,0.13094795,-0.0,9.205141,3.9070926,-1.787335,0.0,0.0,0.0,0.0,0.0,0.0,0.12951592,0.04503364,-0.50500536
2489462829,0.0,0.0,0.0,0.12700228,0.42489856,9.123278,4.092842,-1.7855719,0.0,0.0,0.0,0.0,0.0,0.0,0.12192334,0.060626432,-0.5053224
2489558853,0.0,0.0,0.0,0.15458183,1.4286948,9.019206,4.309153,-1.7874058,0.0,0.0,0.0,0.0,0.0,0.0,0.11444247,0.082679495,-0.49556583
2489662718,0.0,0.0,0.0,0.25224152,2.1550632,8.8956995,4.5375223,-1.78575,0.0,0.0,0.0,0.0,0.0,0.0,0.10249779,0.092776604,-0.47397578
2489768010,0.0,0.0,0.0,0.4104211,2.3002324,8.753815,4.758768,-1.7859396,0.0,0.0,0.0,0.0,0.0,0.0,0.10150791,0.09348207,-0.45505396
2489864818,0.0,0.0,0.0,0.57605094,2.3315473,8.605473,4.9498363,-1.7859424,0.0,0.0,0.0,0.0,0.0,0.0,0.10210493,0.098415524,-0.44184458
2489967655,0.0,0.0,0.0,0.76404864,2.3574724,8.429182,5.137316,-1.7918811,0.0,0.0,0.0,0.0,0.0,0.0,0.10332338,0.09996615,-0.44969317
2490071690,0.0,0.0,0.0,0.9625375,2.3687103,8.232567,5.3072143,-1.7857575,0.0,0.0,0.0,0.0,0.0,0.0,0.101227455,0.09993708,-0.44775438
2490168279,0.0,0.0,0.0,1.1549926,2.3976197,8.034321,5.44508,-1.7859375,0.0,0.0,0.0,0.0,0.0,0.0,0.105478466,0.107457526,-0.45764035
2490272326,0.0,0.0,0.0,1.3667821,2.4172235,7.806215,5.569809,-1.7859424,0.0,0.0,0.0,0.0,0.0,0.0,0.08523899,0.10052459,-0.4636754
2490376409,0.0,0.0,0.0,1.5805331,2.4469266,7.5656147,5.668482,-1.7859424,0.0,0.0,0.0,0.0,0.0,0.0,0.084416375,0.11191677,-0.47391224
2490473538,0.0,0.0,0.0,1.7772944,2.533338,7.3326426,5.7359405,-1.7859424,0.0,0.0,0.0,0.0,0.0,0.0,0.08944771,0.09861597,-0.46786094
2490577223,0.0,0.0,0.0,1.9904422,2.5655634,7.0772448,5.7805777,-1.7859424,0.0,0.0,0.0,0.0,0.0,0.0,0.088373646,0.107332096,-0.46089572
2490681271,0.0,0.0,0.0,2.1983519,2.6754816,6.8177757,5.796489,-1.7834641,0.0,0.0,0.0,0.0,0.0,0.0,0.08434181,0.10119671,-0.46282655
2490777218,0.0,0.0,0.0,2.3884358,2.7990174,6.578246,5.785425,-1.7848424,0.0,0.0,0.0,0.0,0.0,0.0,0.07665472,0.09207202,-0.4587167
2490882520,0.0,0.0,0.0,2.592743,2.8415222,6.3183722,5.7454953,-1.78443,0.0,0.0,0.0,0.0,0.0,0.0,0.07144748,0.08405068,-0.45412943
2490984271,0.0,0.0,0.0,2.7953193,2.9108348,6.072775,5.6789794,-1.7788864,0.0,0.0,0.0,0.0,0.0,0.0,0.06635272,0.078288674,-0.43559682
2491087125,0.0,0.0,0.0,2.9973304,2.9186502,5.8339653,5.5846653,-1.7788386,0.0,0.0,0.0,0.0,0.0,0.0,0.058574434,0.074642904,-0.4260273
2491181921,0.0,0.0,0.0,-3.0927463,2.9238234,5.6244392,5.4736743,-1.784014,0.0,0.0,0.0,0.0,0.0,0.0,0.049386576,0.061337605,-0.43182498
2491287496,0.0,0.0,0.0,-2.8803592,2.9249775,5.407061,5.3242574,-1.7832352,0.0,0.0,0.0,0.0,0.0,0.0,0.05473805,0.053417586,-0.4369731
2491386822,0.0,0.0,0.0,-2.6695886,2.9310517,5.222405,5.158509,-1.7786518,0.0,0.0,0.0,0.0,0.0,0.0,0.047417488,0.043855987,-0.44575086
2491490671,0.0,0.0,0.0,-2.4491882,2.940689,5.0535855,4.961514,-1.7788384,0.0,0.0,0.0,0.0,0.0,0.0,0.050595768,0.03044819,-0.4483469
2491595811,0.0,0.0,0.0,-2.2279284,2.9426234,4.9103374,4.741344,-1.7823175,0.0,0.0,0.0,0.0,0.0,0.0,0.051662825,0.028014168,-0.4518369
2491698688,0.0,0.0,0.0,-2.0099764,2.9562595,4.79957,4.5094295,-1.7847884,0.0,0.0,0.0,0.0,0.0,0.0,0.04561467,0.019423012,-0.45811802
2491795526,0.0,0.0,0.0,-1.810577,2.9608402,4.7239676,4.2796135,-1.7811172,0.0,0.0,0.0,0.0,0.0,0.0,0.04247045,0.013936482,-0.45934337
2491899492,0.0,0.0,0.0,-1.5971831,2.9695191,4.675887,4.0243864,-1.7801775,0.0,0.0,0.0,0.0,0.0,0.0,0.043520007,0.004794102,-0.46642292
2492003633,0.0,0.0,0.0,-1.3824506,2.9693825,4.6643944,3.7645144,-1.7859035,0.0,0.0,0.0,0.0,0.0,0.0,0.04182023,-0.0005813055,-0.4866881
2492099511,0.0,0.0,0.0,-1.1805289,2.8998756,4.689179,3.526327,-1.7863309,0.0,0.0,0.0,0.0,0.0,0.0,0.051216185,-0.01762126,-0.49701473
2492204396,0.0,0.0,0.0,-0.95744646,2.743442,4.7585006,3.2738051,-1.7810036,0.0,0.0,0.0,0.0,0.0,0.0,0.060269255,-0.018094782,-0.50695944
2492308541,0.0,0.0,0.0,-0.7360847,2.0739899,4.87248,3.0401285,-1.7848349,0.0,0.0,0.0,0.0,0.0,0.0,0.06442817,-0.026913747,-0.5134252
2492404298,0.0,0.0,0.0,-0.5396117,1.7427235,5.0158854,2.8489587,-1.7803563,0.0,0.0,0.0,0.0,0.0,0.0,0.07957281,-0.040523954,-0.50555
2492509500,0.0,0.0,0.0,-0.34555534,1.7557501,5.2164087,2.6801682,-1.7831945,0.0,0.0,0.0,0.0,0.0,0.0,0.095199086,-0.042631745,-0.49449027
2492613213,0.0,0.0,0.0,-0.15708682,1.9086945,5.4531403,2.5767214,-1.7834355,0.0,0.0,0.0,0.0,0.0,0.0,0.11682871,-0.044755142,-0.48598522
2492709117,0.0,0.0,0.0,0.021625685,2.0442872,5.6909347,2.5656457,-1.7801313,0.0,0.0,0.0,0.0,0.0,0.0,0.12359026,-0.031688243,-0.4814916
2492814914,0.0,0.0,0.0,0.2234227,2.1813722,5.9281087,2.6751971,-1.7845855,0.0,0.0,0.0,0.0,0.0,0.0,0.14246735,-0.028432135,-0.48063225
2492918165,0.0,0.0,0.0,0.43450123,2.2361622,6.0727925,2.8895416,-1.7835968,0.0,0.0,0.0,0.0,0.0,0.0,0.14619547,-0.00501417,-0.48928088
2493014694,0.0,0.0,0.0,0.63100976,2.3178344,6.0837936,3.1556754,-1.7817224,0.0,0.0,0.0,0.0,0.0,0.0,0.143293,0.013255348,-0.49203986
2493119226,0.0,0.0,0.0,0.84467405,2.426006,5.9238048,3.434727,-1.7813063,0.0,0.0,0.0,0.0,0.0,0.0,0.11937626,0.030987566,-0.49528325
2493222154,0.0,0.0,0.0,1.0595008,2.5367482,5.636528,3.6370225,-1.7791117,0.0,0.0,0.0,0.0,0.0,0.0,0.100371696,0.04047456,-0.4846359
2493324138,0.0,0.0,0.0,1.2695814,2.5539536,5.262795,3.7206345,-1.7858645,0.0,0.0,0.0,0.0,0.0,0.0,0.07449021,0.04603093,-0.47205812
2493418744,0.0,0.0,0.0,1.4722301,2.5786192,4.877561,3.711583,-1.7785038,0.0,0.0,0.0,0.0,0.0,0.0,0.052822314,0.037680108,-0.45340422
2493522771,0.0,0.0,0.0,1.692343,2.607648,4.4389744,3.623414,-1.7788491,0.0,0.0,0.0,0.0,0.0,0.0,0.029693633,0.028697608,-0.44881594
2493626739,0.0,0.0,0.0,1.9117128,2.607544,4.006546,3.4009378,-1.7805398,0.0,0.0,0.0,0.0,0.0,0.0,0.0059694946,0.008297123,-0.4492518
2493723638,0.0,0.0,0.0,2.11499,2.593328,4.951577,3.5784988,-1.7856727,0.0,0.0,0.0,0.0,0.0,0.0,0.108527765,0.03269581,-0.43387607
2493828717,0.0,0.0,0.0,2.3310971,2.6018367,4.696262,3.3939824,-1.7789209,0.0,0.0,0.0,0.0,0.0,0.0,0.09436199,0.022885308,-0.41368508
2493932829,0.0,0.0,0.0,2.5392225,2.6137173,4.4432964,3.2111657,-1.7850442,0.0,0.0,0.0,0.0,0.0,0.0,0.07779795,0.0040276498,-0.4282671
2494027432,0.0,0.0,0.0,2.7337422,2.6339273,4.2129073,3.0446641,-1.7826085,0.0,0.0,0.0,0.0,0.0,0.0,0.055844836,-0.0025985278,-0.43190935
2494132490,0.0,0.0,0.0,2.9448674,2.649351,3.9574594,2.860053,-1.779093,0.0,0.0,0.0,0.0,0.0,0.0,0.040170513,-0.01182672,-0.43296337
2494236377,0.0,0.0,0.0,-3.1297336,2.6606061,3.704862,2.6775012,-1.782809,0.0,0.0,0.0,0.0,0.0,0.0,0.025051616,-0.019880868,-0.44088334
2494332425,0.0,0.0,0.0,-2.9354262,2.6590352,3.47132,2.5087206,-1.7770568,0.0,0.0,0.0,0.0,0.0,0.0,0.012726933,-0.02474771,-0.43354473
2494436318,0.0,0.0,0.0,-2.7222118,2.7140164,3.2187083,2.326158,-1.634434,0.0,0.0,0.0,0.0,0.0,0.0,0.006601557,-0.025381755,-0.3964885
2494541154,0.0,0.0,0.0,-2.5066414,2.122374,2.9638176,2.1419492,-1.5201371,0.0,0.0,0.0,0.0,0.0,0.0,-0.009963796,-0.031063514,-0.38161695
2494638442,0.0,0.0,0.0,-2.3199503,0.18428402,2.727419,1.9711035,-1.5023816,0.0,0.0,0.0,0.0,0.0,0.0,-0.022692867,-0.026228579,-0.39369515
2494741091,0.0,0.0,0.0,-2.2950277,-0.0,2.4776666,1.7906076,-1.5019208,0.0,0.0,0.0,0.0,0.0,0.0,-0.027787209,-0.020647822,-0.37594578
2494846419,0.0,0.0,0.0,-2.2950277,0.0,2.2218938,1.6057607,-1.5054271,0.0,0.0,0.0,0.0,0.0,0.0,-0.02516903,-0.016418133,-0.3672783
2494943317,0.0,0.0,0.0,-2.2950277,0.0,1.9859427,1.4352388,-1.5019593,0.0,0.0,0.0,0.0,0.0,0.0,-0.03622096,-0.022659171,-0.38938
2495047390,0.0,0.0,0.0,-2.2950277,0.0,1.7328881,1.2523565,-1.5048814,0.0,0.0,0.0,0.0,0.0,0.0,-0.044337317,-0.022671517,-0.41423783
2495150134,0.0,0.0,0.0,-2.2950277,-0.0,1.4832376,1.0719345,-1.5137483,0.0,0.0,0.0,0.0,0.0,0.0,-0.04843922,-0.038089722,-0.43359295
2495247256,0.0,0.0,0.0,-2.2950277,-0.0,1.247094,0.90127367,-1.5158694,0.0,0.0,0.0,0.0,0.0,0.0,-0.04458528,-0.030131571,-0.45139143
2495354651,0.0,0.0,0.0,-2.2950277,-0.0,0.98578954,0.71242905,-1.5091083,0.0,0.0,0.0,0.0,0.0,0.0,-0.04917923,-0.039784726,-0.4551011
2495450893,0.0,0.0,0.0,-2.2950277,0.0,0.7517881,0.5433164,-1.5125232,0.0,0.0,0.0,0.0,0.0,0.0,-0.053823244,-0.04182196,-0.46598154
2495556095,0.0,0.0,0.0,-2.2950277,0.0,0.49619976,0.35860306,-1.5090591,0.0,0.0,0.0,0.0,0.0,0.0,-0.064561866,-0.04934812,-0.46723703
2495652049,0.0,0.0,0.0,-2.2950277,0.0,0.26284993,0.18996139,-1.5125239,0.0,0.0,0.0,0.0,0.0,0.0,-0.06527947,-0.050422385,-0.47078124
2495755513,0.0,0.0,0.0,-2.2950277,0.0,0.011108318,0.008027971,-1.5129894,0.0,0.0,0.0,0.0,0.0,0.0,-0.06623842,-0.060364343,-0.4750765
2495860562,0.0,0.0,0.0,-2.2950277,-0.0,0.0,0.0,-1.5132139,0.0,0.0,0.0,0.0,0.0,0.0,-0.044286028,-0.0443441,-0.48126507
2495963520,0.0,0.0,0.0,-2.2950277,-0.0,0.0,0.0,-1.5098989,0.0,0.0,0.0,0.0,0.0,0.0,-0.025513183,-0.028594367,-0.48798072
2496060335,0.0,0.0,0.0,-2.2950277,-0.0,0.0,0.0,-1.5111496,0.0,0.0,0.0,0.0,0.0,0.0,-0.016830515,-0.029875513,-0.4844581
2496164420,0.0,0.0,0.0,-2.2950277,0.0,0.0,0.0,-1.5090991,0.0,0.0,0.0,0.0,0.0,0.0,-0.015893485,-0.026642561,-0.48827112
2496269329,72.32851,39.888054,0.0,-2.2950277,0.0,-0.020199966,-0.05575466,-1.5105186,0.0,0.0,0.0,0.0,0.0,0.0,-0.008129291,-0.029812133,-0.49117506
2496372406,72.32851,39.888054,0.0,-2.2950277,0.0,-0.044342805,-0.12681694,-1.5144014,0.0,0.0,0.0,0.0,0.0,0.0,-0.0031788014,-0.029011426,-0.4882677
2496469344,72.32851,39.888054,0.0,-2.2950277,-0.0,-0.053554915,-0.18773575,-1.5138195,0.0,0.0,0.0,0.0,0.0,0.0,-0.0004045181,-0.032185633,-0.490893
2496573623,72.32851,39.888054,0.0,-2.2950277,-0.0,-0.05734558,-0.2429613,-1.5078514,0.0,0.0,0.0,0.0,0.0,0.0,0.0073497556,-0.028353496,-0.49001828
2496677067,72.32851,39.888054,0.0,-2.2950277,-0.0,-0.052156065,-0.29336336,-1.5110896,0.0,0.0,0.0,0.0,0.0,0.0,0.0059721805,-0.031399753,-0.4843828
2496773194,72.32851,39.888054,0.0,-2.2950277,0.0,-0.047336195,-0.3311758,-1.5131912,0.0,0.0,0.0,0.0,0.0,0.0,0.00780838,-0.0280389,-0.48245975
2496878012,72.32851,39.888054,0.0,-2.2950277,0.0,-0.037442777,-0.36817282,-1.5128055,0.0,0.0,0.0,0.0,0.0,0.0,0.005528856,-0.036688197,-0.48990813
2496983309,72.32851,39.888054,0.0,-2.2950277,0.0,-0.028629303,-0.39873007,-1.5122176,0.0,0.0,0.0,0.0,0.0,0.0,0.014799159,-0.025444232,-0.48733935
2497085871,72.32851,39.888054,0.0,-2.2950277,-0.0,-0.012720108,-0.42415944,-1.5103774,0.0,0.0,0.0,0.0,0.0,0.0,0.014393009,-0.025726996,-0.48661143
2497182015,72.32851,39.888054,0.0,-2.2950277,-0.0,-0.001348114,-0.4372528,-1.5164926,0.0,0.0,0.0,0.0,0.0,0.0,0.019361379,-0.01973072,-0.48147303
2497286836,72.32851,39.888054,0.0,-2.2950277,-0.0,0.018351745,-0.44722596,-1.5121624,0.0,0.0,0.0,0.0,0.0,0.0,0.01767755,-0.024403902,-0.48757404
2497392349,72.32851,39.888054,0.0,-2.2950277,0.0,0.03234749,-0.44788912,-1.5112771,0.0,0.0,0.0,0.0,0.0,0.0,0.018131878,-0.021670556,-0.4936698
2497496048,72.32851,39.888054,0.0,-2.2950277,0.0,0.049394608,-0.4486864,-1.5132484,0.0,0.0,0.0,0.0,0.0,0.0,0.023641419,-0.013496792,-0.4846849
2497590744,72.32851,39.888054,0.0,-2.2950277,0.0,0.056236647,-0.4396265,-1.5138731,0.0,0.0,0.0,0.0,0.0,0.0,0.017747927,-0.015140627,-0.48157978
2497695605,72.32851,39.888054,0.0,-2.2950277,0.0,0.065485,-0.43086377,-1.50825,0.0,0.0,0.0,0.0,0.0,0.0,0.010816421,-0.019036781,-0.47813684
2497800556,72.32851,39.888054,0.0,-2.2950277,0.0,0.0668766,-0.4161722,-1.5026956,0.0,0.0,0.0,0.0,0.0,0.0,0.019122224,-0.010885447,-0.48228246
2497896917,72.32851,39.888054,0.0,-2.2950277,0.0,0.070957184,-0.40720654,-1.5154192,0.0,0.0,0.0,0.0,0.0,0.0,0.025515193,-0.0057622916,-0.48742643
2497996384,72.32851,39.888054,0.0,-2.2950277,0.0,0.07034111,-0.38950348,-1.5165228,0.0,0.0,0.0,0.0,0.0,0.0,0.014517624,-0.014527777,-0.49049467
2498101409,72.32851,39.888054,0.0,-2.2950277,0.0,0.073711395,-0.37134743,-1.5065014,0.0,0.0,0.0,0.0,0.0,0.0,0.025346337,-0.004093205,-0.48630354
2498204271,72.32851,39.888054,0.0,-2.2950277,0.0,0.071819685,-0.34570426,-1.5105491,0.0,0.0,0.0,0.0,0.0,0.0,0.021973472,-0.0021820692,-0.49108285
2498308429,72.32851,39.888054,0.0,-2.2950277,0.0,0.07139206,-0.32243842,-1.5072408,0.0,0.0,0.0,0.0,0.0,0.0,0.021026507,-0.0033903471,-0.48650724
2498405159,72.32851,39.888054,0.0,-2.2950277,0.0,0.068144985,-0.2972845,-1.4624152,0.0,0.0,0.0,0.0,0.0,0.0,0.020973396,-0.002227602,-0.46493745
2498509127,72.32851,39.888054,0.0,-2.2950277,0.0,0.059527207,-0.2713043,-1.0036552,0.0,0.0,0.0,0.0,0.0,0.0,0.016714185,0.00044275261,-0.3403672
2498614205,72.32851,39.888054,0.0,-2.2950277,-0.0,0.04676361,-0.24267139,-0.6721808,0.0,0.0,0.0,0.0,0.0,0.0,0.019650951,0.0017665206,-0.29970732
2498717065,72.32851,39.888054,0.0,-2.2705908,0.78216314,0.03621063,-0.20730877,-0.32700467,0.0,0.0,0.0,0.0,0.0,0.0,0.022795325,0.0056488654,-0.2765915
2498813990,72.32851,39.888054,0.0,-2.2351165,1.2813275,0.023881912,-0.17468585,-0.32278228,0.0,0.0,0.0,0.0,0.0,0.0,0.014733813,0.0021758908,-0.3453738
2498918003,0.0,0.0,0.0,-2.1461775,1.639826,-0.1808196,-0.26057762,-0.31123167,0.0,0.0,0.0,0.0,0.0,0.0,-0.0022292174,-0.0044746525,-0.3822859
2499022642,0.0,0.0,0.0,-2.021362,1.6690457,-0.35280046,-0.56976366,-0.30923772,0.0,0.0,0.0,0.0,0.0,0.0,-0.019340927,-0.03232242,-0.4166305
2499118927,0.0,0.0,0.0,-1.8930087,1.5254194,-0.4545735,-0.8362779,-0.3106607,0.0,0.0,0.0,0.0,0.0,0.0,-0.019516032,-0.047098752,-0.43514198
2499223530,0.0,0.0,0.0,-1.7555063,1.2452639,-0.51884437,-1.1299437,-0.31624007,0.0,0.0,0.0,0.0,0.0,0.0,-0.020058794,-0.06899422,-0.44504476
2499326794,0.0,0.0,0.0,-1.6340753,1.0401937,-0.53853834,-1.4041426,-0.32223672,0.0,0.0,0.0,0.0,0.0,0.0,-0.018495407,-0.07832389,-0.45719182
2499422768,0.0,0.0,0.0,-1.5397294,0.58006305,-0.5263294,-1.6445256,-0.3163414,0.0,0.0,0.0,0.0,0.0,0.0,-0.018796617,-0.09428824,-0.45461076
2499528110,0.0,0.0,0.0,-1.4671965,0.40433815,-0.4872054,-1.9046797,-0.32245803,0.0,0.0,0.0,0.0,0.0,0.0,-0.010338152,-0.104515,-0.45474756
2499632290,0.0,0.0,0.0,-1.4165846,0.2735795,-0.42966327,-2.1588712,-0.31634498,0.0,0.0,0.0,0.0,0.0,0.0,-0.0054090098,-0.11030391,-0.45079517
2499735530,0.0,0.0,0.0,-1.3814516,0.23346643,-0.35973436,-2.407296,-0.32045412,0.0,0.0,0.0,0.0,0.0,0.0,0.0042590257,-0.11002368,-0.44750783
2499831667,0.0,0.0,0.0,-1.3586824,0.09103683,-0.28634945,-2.6360443,-0.31822172,0.0,0.0,0.0,0.0,0.0,0.0,0.0037557436,-0.12592895,-0.4469416
2499935544,0.0,0.0,0.0,-1.3503919,-0.0,-0.20170335,-2.8816402,-0.32396364,0.0,0.0,0.0,0.0,0.0,0.0,0.013859501,-0.13140216,-0.46121633
2500037393,0.0,0.0,0.0,-1.3503919,-0.0,-0.11816858,-3.1221912,-0.32338628,0.0,0.0,0.0,0.0,0.0,0.0,0.021280756,-0.13752502,-0.45380995
2500140288,0.0,0.0,0.0,-1.3503919,-0.0,-0.03378253,-3.3651936,-0.32316336,0.0,0.0,0.0,0.0,0.0,0.0,0.023552472,-0.14777298,-0.45535982
2500238046,0.0,0.0,0.0,-1.3503919,-0.0,0.04638894,-3.5960596,-0.32068658,0.0,0.0,0.0,0.0,0.0,0.0,0.031205967,-0.15277669,-0.45699683
2500341351,0.0,0.0,0.0,-1.3503919,-0.0,0.13110879,-3.8400235,-0.3187955,0.0,0.0,0.0,0.0,0.0,0.0,0.036789887,-0.15244126,-0.46176603
2500446517,0.0,0.0,0.0,-1.3503919,-0.0,0.21730238,-4.0882316,-0.32088763,0.0,0.0,0.0,0.0,0.0,0.0,0.037593335,-0.1543127,-0.46199438
2500541129,0.0,0.0,0.0,-1.3503919,-0.0,0.29494956,-4.3118286,-0.32188663,0.0,0.0,0.0,0.0,0.0,0.0,0.034003213,-0.16336432,-0.4521294
2500646219,0.0,0.0,0.0,-1.3503919,-0.0,0.3811383,-4.5600214,-0.3198235,0.0,0.0,0.0,0.0,0.0,0.0,0.039646585,-0.17130202,-0.44587758
2500749228,0.0,0.0,0.0,-1.3503919,-0.0,0.46561784,-4.803293,-0.31613317,0.0,0.0,0.0,0.0,0.0,0.0,0.045154274,-0.17982605,-0.44390053
2500845900,0.0,0.0,0.0,-1.3503919,-0.0,0.54490364,-5.031608,-0.31903753,0.0,0.0,0.0,0.0,0.0,0.0,0.04312975,-0.18451427,-0.44675192
2500949950,0.0,0.0,0.0,-1.3503919,-0.0,0.63022554,-5.277305,-0.31741747,0.0,0.0,0.0,0.0,0.0,0.0,0.04581455,-0.17674536,-0.4454587
2501055335,0.0,0.0,0.0,-1.3503919,-0.0,0.7166652,-5.5262203,-0.3235448,0.0,0.0,0.0,0.0,0.0,0.0,0.04768896,-0.18763503,-0.4533276
2501151895,0.0,0.0,0.0,-1.3503919,-0.0,0.7957983,-5.7540965,-0.31862348,0.0,0.0,0.0,0.0,0.0,0.0,0.052550472,-0.18879326,-0.4543395
2501254743,0.0,0.0,0.0,-1.3503919,-0.0,0.8802023,-5.997151,-0.31862625,0.0,0.0,0.0,0.0,0.0,0.0,0.051231112,-0.18697152,-0.45329487
2501358882,0.0,0.0,0.0,-1.3503919,0.0,0.9656085,-6.243091,-0.31634498,0.0,0.0,0.0,0.0,0.0,0.0,0.050873727,-0.190097,-0.4474575
2501454824,0.0,0.0,0.0,-1.3503919,0.0,1.0442923,-6.469672,-0.3165238,0.0,0.0,0.0,0.0,0.0,0.0,0.055389244,-0.19624773,-0.45072812
2501560587,0.0,0.0,0.0,-1.3503919,-0.0,1.1310306,-6.7194476,-0.17848152,0.0,0.0,0.0,0.0,0.0,0.0,0.060599,-0.20176376,-0.44014663
2501663644,0.0,0.0,0.0,-1.3503919,-0.0,1.2155493,-6.962833,0.12844801,0.0,0.0,0.0,0.0,0.0,0.0,0.05790027,-0.20499432,-0.36459935
2501759567,0.0,0.0,0.0,-1.3503919,-0.0,1.2942176,-7.189369,0.1566449,0.0,0.0,0.0,0.0,0.0,0.0,0.06858054,-0.20742506,-0.38921154
2501863542,0.0,0.0,0.0,-1.3476837,0.13790861,1.3804214,-7.4345865,0.32909033,0.0,0.0,0.0,0.0,0.0,0.0,0.070600316,-0.22227162,-0.36892387
2501964387,0.0,0.0,0.0,-1.3373934,0.19428588,1.470634,-7.6699934,0.5171875,0.0,0.0,0.0,0.0,0.0,0.0,0.06847123,-0.21032882,-0.3454905
2502069361,0.0,0.0,0.0,-1.3224385,0.040589225,1.5786244,-7.909102,0.5147982,0.0,0.0,0.0,0.0,0.0,0.0,0.07480551,-0.22075099,-0.4123391
2502172337,0.0,0.0,0.0,-1.3153903,-0.0,1.698768,-8.136789,0.51874685,0.0,0.0,0.0,0.0,0.0,0.0,0.07742907,-0.2050263,-0.45366675
2502269364,0.0,0.0,0.0,-1.3153903,-0.0,1.8136564,-8.350407,0.518512,0.0,0.0,0.0,0.0,0.0,0.0,0.079308294,-0.21221873,-0.46188995
2502373288,0.0,0.0,0.0,-1.3153903,0.0,1.9367251,-8.579234,0.5168759,0.0,0.0,0.0,0.0,0.0,0.0,0.08738681,-0.2139355,-0.45681742
2502478495,0.0,0.0,0.0,-1.3153903,-0.0,2.0612211,-8.810714,0.5183385,0.0,0.0,0.0,0.0,0.0,0.0,0.08464955,-0.21864346,-0.4418345
2502582729,0.0,0.0,0.0,-1.3153903,-0.0,2.1847389,-9.040376,0.51751465,0.0,0.0,0.0,0.0,0.0,0.0,0.091549695,-0.21853566,-0.43831226
2502685092,0.0,0.0,0.0,-1.3153903,-0.0,2.305945,-9.265739,0.51355606,0.0,0.0,0.0,0.0,0.0,0.0,0.09480576,-0.22731295,-0.4503572
2502781942,0.0,0.0,0.0,-1.3153903,0.0,2.4206393,-9.478994,0.51379186,0.0,0.0,0.0,0.0,0.0,0.0,0.09176958,-0.23178221,-0.4633518
2502885922,0.0,0.0,0.0,-1.3153903,0.0,2.5263824,-9.675609,0.51367384,0.0,0.0,0.0,0.0,0.0,0.0,0.09647016,-0.23004772,-0.46440762
2502991226,0.0,0.0,0.0,-1.3153903,-0.0,2.5263824,-9.675609,0.5137925,0.0,0.0,0.0,0.0,0.0,0.0,0.08936645,-0.21777493,-0.46951956
2503088212,0.0,0.0,0.0,-1.3153903,-0.0,2.5263824,-9.675609,0.5137859,0.0,0.0,0.0,0.0,0.0,0.0,0.08386891,-0.19982533,-0.46821535
2503190797,0.0,0.0,0.0,-1.2969593,0.08596691,2.6012068,-9.655344,0.514763,0.0,0.0,0.0,0.0,0.0,0.0,0.081677034,-0.18357795,-0.45423692
2503294811,0.0,0.0,0.0,-1.2862861,0.29236022,2.8068738,-9.597992,0.51643085,0.0,0.0,0.0,0.0,0.0,0.0,0.10231528,-0.16980031,-0.4559906
2503390828,0.0,0.0,0.0,-1.2638333,0.40482062,3.0138416,-9.535017,0.5175089,0.0,0.0,0.0,0.0,0.0,0.0,0.11423215,-0.15783685,-0.4482972
2503495764,0.0,0.0,0.0,-1.2237353,0.7864618,3.2627416,-9.452199,0.5138146,0.0,0.0,0.0,0.0,0.0,0.0,0.119371064,-0.15521929,-0.4474476
2503599566,0.0,0.0,0.0,-1.1586578,0.9271855,3.5057766,-9.361243,0.51393837,0.0,0.0,0.0,0.0,0.0,0.0,0.12640247,-0.1426304,-0.4277393
2503695483,0.0,0.0,0.0,-1.0868976,1.0557128,3.726505,-9.267592,0.5154544,0.0,0.0,0.0,0.0,0.0,0.0,0.12785244,-0.1403688,-0.41387182
2503799689,0.0,0.0,0.0,-0.9963103,1.2562658,3.960994,-9.154181,0.5715107,0.0,0.0,0.0,0.0,0.0,0.0,0.13562813,-0.13229425,-0.39346266
2503901361,0.0,0.0,0.0,-0.8949907,1.6940538,4.1831403,-9.030742,0.84296525,0.0,0.0,0.0,0.0,0.0,0.0,0.13047464,-0.11597315,-0.3193813
2504005714,0.0,0.0,0.0,-0.76585376,1.8915418,4.401984,-8.889154,0.84780395,0.0,0.0,0.0,0.0,0.0,0.0,0.1372483,-0.11830659,-0.335944
2504100313,0.0,0.0,0.0,-0.6220103,2.1165512,4.5900393,-8.74554,0.9588943,0.0,0.0,0.0,0.0,0.0,0.0,0.13296336,-0.11586099,-0.32483876
2504204418,0.0,0.0,0.0,-0.44550574,2.2323604,4.7819114,-8.5698595,0.98754895,0.0,0.0,0.0,0.0,0.0,0.0,0.122652456,-0.107386015,-0.34331083
2504310492,0.0,0.0,0.0,-0.25164548,2.2418096,4.957813,-8.371836,0.99219304,0.0,0.0,0.0,0.0,0.0,0.0,0.12694545,-0.09384932,-0.36618194
2504405154,0.0,0.0,0.0,-0.06676569,2.2359145,5.0958276,-8.179485,0.99578947,0.0,0.0,0.0,0.0,0.0,0.0,0.13250136,-0.09119921,-0.38037866
2504510620,0.0,0.0,0.0,0.13497613,2.2336423,5.2260647,-7.95038,1.0032808,0.0,0.0,0.0,0.0,0.0,0.0,0.122793466,-0.08574999,-0.3803475
2504613252,0.0,0.0,0.0,0.33493182,2.217355,5.3277774,-7.714947,1.0020154,0.0,0.0,0.0,0.0,0.0,0.0,0.121757746,-0.07758663,-0.37115937
2504709937,0.0,0.0,0.0,0.5247009,2.210077,5.3998513,-7.4843388,1.0061582,0.0,0.0,0.0,0.0,0.0,0.0,0.11949932,-0.0730119,-0.36336145
2504814032,0.0,0.0,0.0,0.73022515,2.191367,5.4501595,-7.229153,1.0045071,0.0,0.0,0.0,0.0,0.0,0.0,0.11702402,-0.071111016,-0.36066628
2504918058,0.0,0.0,0.0,0.9229417,2.1591423,5.4725466,-6.970187,1.0026999,0.0,0.0,0.0,0.0,0.0,0.0,0.120225884,-0.06440283,-0.3639338
2505013905,0.0,0.0,0.0,1.0971168,2.1305075,5.4692793,-6.730672,1.0041063,0.0,0.0,0.0,0.0,0.0,0.0,0.11245489,-0.061256614,-0.3518265
2505118787,0.0,0.0,0.0,1.2855399,2.126377,5.439554,-6.470276,1.0027407,0.0,0.0,0.0,0.0,0.0,0.0,0.090301186,-0.05797154,-0.33512717
2505224145,0.0,0.0,0.0,1.4771541,2.1262832,5.382317,-6.213321,1.0012217,0.0,0.0,0.0,0.0,0.0,0.0,0.089208744,-0.04552427,-0.32545972
2505320205,0.0,0.0,0.0,1.6567491,2.1342764,5.30593,-5.985738,1.0013372,0.0,0.0,0.0,0.0,0.0,0.0,0.07329152,-0.04623784,-0.3134371
2505423688,0.0,0.0,0.0,1.8508111,2.1475177,5.1985397,-5.7505097,1.0030978,0.0,0.0,0.0,0.0,0.0,0.0,0.0709049,-0.039494686,-0.30052695
2505527631,0.0,0.0,0.0,2.0531733,2.1783721,5.06509,-5.5277004,1.0010723,0.0,0.0,0.0,0.0,0.0,0.0,0.060629502,-0.03415425,-0.3085935
2505624292,0.0,0.0,0.0,2.2465632,2.209601,4.9182587,-5.335895,1.0114907,0.0,0.0,0.0,0.0,0.0,0.0,0.05277682,-0.026242182,-0.3097717
2505729193,0.0,0.0,0.0,2.4630501,2.2321255,4.7314577,-5.1444654,1.0157139,0.0,0.0,0.0,0.0,0.0,0.0,0.054809965,-0.02931559,-0.3126468
2505831700,0.0,0.0,0.0,2.6821907,2.259357,4.512275,-4.9688663,1.0153433,0.0,0.0,0.0,0.0,0.0,0.0,0.05169561,-0.028511256,-0.3018059
2505932319,0.0,0.0,0.0,2.8882544,2.277764,4.262667,-4.8105197,1.0172876,0.0,0.0,0.0,0.0,0.0,0.0,0.043346167,-0.020263284,-0.29323328
2506037524,0.0,0.0,0.0,3.1022358,2.2955284,3.9587824,-4.6533165,1.0171791,0.0,0.0,0.0,0.0,0.0,0.0,0.013215024,-0.010420397,-0.30024317
2506140292,0.0,0.0,0.0,-2.966265,2.3028061,3.6153524,-4.4937105,1.0181257,0.0,0.0,0.0,0.0,0.0,0.0,0.0035078228,0.005904548,-0.3214777
2506236268,0.0,0.0,0.0,-2.7668145,2.3089805,3.2632086,-4.287123,1.0177163,0.0,0.0,0.0,0.0,0.0,0.0,-0.015499242,0.014623888,-0.3246938
2506338332,0.0,0.0,0.0,-2.5550501,2.2285905,4.182954,-5.372105,1.0194832,0.0,0.0,0.0,0.0,0.0,0.0,0.0979552,-0.09085239,-0.3073179
2506441150,0.0,0.0,0.0,-2.3690283,2.062592,3.993336,-5.1285815,1.0162519,0.0,0.0,0.0,0.0,0.0,0.0,0.10109547,-0.08738534,-0.27917755
2506546399,0.0,0.0,0.0,-2.1788886,1.8740261,3.7995696,-4.879729,1.0153713,0.0,0.0,0.0,0.0,0.0,0.0,0.07451417,-0.04989592,-0.3398563
2506643522,0.0,0.0,0.0,-1.9957939,1.4944376,3.620328,-4.6495323,1.0156527,0.0,0.0,0.0,0.0,0.0,0.0,0.051278915,-0.036363795,-0.39110577
2506745933,0.0,0.0,0.0,-1.8258651,1.4766607,3.431593,-4.407142,1.0158135,0.0,0.0,0.0,0.0,0.0,0.0,0.017401185,-0.023150764,-0.41327727
2506849901,0.0,0.0,0.0,-1.6634299,1.6826211,3.2399511,-4.16102,1.0184252,0.0,0.0,0.0,0.0,0.0,0.0,0.005130887,-0.010825865,-0.38201714
2506945853,0.0,0.0,0.0,-1.5074863,1.7459562,3.0631025,-3.9338953,1.0175873,0.0,0.0,0.0,0.0,0.0,0.0,0.0005218461,0.0067897066,-0.3471428
2507052042,0.0,0.0,0.0,-1.3368138,1.749035,2.867653,-3.6828828,1.0178273,0.0,0.0,0.0,0.0,0.0,0.0,-0.0074463934,0.017885827,-0.31315544
2507154709,0.0,0.0,0.0,-1.1654892,1.7127795,2.6781602,-3.4395206,1.0156587,0.0,0.0,0.0,0.0,0.0,0.0,-0.014218297,0.0327805,-0.28989956
2507250770,0.0,0.0,0.0,-1.0064086,1.2582145,2.5011175,-3.2121475,1.019638,0.0,0.0,0.0,0.0,0.0,0.0,-0.020611346,0.030113846,-0.28436863
2507354673,0.0,0.0,0.0,-0.8567792,0.4777156,2.3096066,-2.9661932,1.01543,0.0,0.0,0.0,0.0,0.0,0.0,-0.015916497,0.033224985,-0.27538848
2507460600,0.0,0.0,0.0,-0.7538966,-0.0,2.114367,-2.71545,0.7862897,0.0,0.0,0.0,0.0,0.0,0.0,-0.015468705,0.030283771,-0.33599907
2507556999,0.0,0.0,0.0,-0.7538966,-0.0,1.9367019,-2.4872773,0.5786404,0.0,0.0,0.0,0.0,0.0,0.0,-0.01447681,0.030043937,-0.38678685
2507659504,0.0,0.0,0.0,-0.7538966,-0.0,1.7477752,-2.2446418,0.5104953,0.0,0.0,0.0,0.0,0.0,0.0,-0.008775163,0.029680856,-0.3813293
2507764598,0.0,0.0,0.0,-0.7538966,-0.0,1.5540694,-1.9958678,0.30067384,0.0,0.0,0.0,0.0,0.0,0.0,-0.022095297,0.026880346,-0.40815854
2507860293,0.0,0.0,0.0,-0.7538966,-0.0,1.3777014,-1.7693611,0.3013504,0.0,0.0,0.0,0.0,0.0,0.0,-0.018203296,0.036349572,-0.3925456
2507965699,0.0,0.0,0.0,-0.7538966,0.0,1.1834203,-1.519849,0.30568528,0.0,0.0,0.0,0.0,0.0,0.0,-0.021746099,0.03685126,-0.38499466
2508068283,0.0,0.0,0.0,-0.7538966,0.0,0.9943499,-1.2770286,0.30537626,0.0,0.0,0.0,0.0,0.0,0.0,-0.031802703,0.040971857,-0.37850183
2508165373,0.0,0.0,0.0,-0.7538966,-0.0,0.8154017,-1.047208,0.30549917,0.0,0.0,0.0,0.0,0.0,0.0,-0.03562368,0.041422725,-0.38165134
2508269100,0.0,0.0,0.0,-0.7538966,-0.0,0.6242355,-0.80169606,0.3089736,0.0,0.0,0.0,0.0,0.0,0.0,-0.03894666,0.04643092,-0.38307878
2508373180,0.0,0.0,0.0,-0.7538966,-0.0,0.43239295,-0.55531555,0.31025007,0.0,0.0,0.0,0.0,0.0,0.0,-0.044605788,0.0536236,-0.38013133
2508469140,0.0,0.0,0.0,-0.7538966,0.0,0.2555421,-0.32818878,0.3084655,0.0,0.0,0.0,0.0,0.0,0.0,-0.04818374,0.053628467,-0.38819966
2508573239,0.0,0.0,0.0,-0.7538966,0.0,0.06366448,-0.0817633,0.307715,0.0,0.0,0.0,0.0,0.0,0.0,-0.05077823,0.056774296,-0.403634
2508677945,0.0,0.0,0.0,-0.7538966,0.0,0.0,0.0,0.3106179,0.0,0.0,0.0,0.0,0.0,0.0,-0.042875938,0.04902273,-0.40633917
2508774914,0.0,0.0,0.0,-0.7538966,0.0,0.0,0.0,0.31026304,0.0,0.0,0.0,0.0,0.0,0.0,-0.03100352,0.03645724,-0.41968837
2508877894,0.0,0.0,0.0,-0.7538966,-0.0,0.0,0.0,0.31010568,0.0,0.0,0.0,0.0,0.0,0.0,-0.024161736,0.024515066,-0.42903048
2508983475,0.0,0.0,0.0,-0.7538966,-0.0,0.0,0.0,0.3102502,0.0,0.0,0.0,0.0,0.0,0.0,-0.01435947,0.014487196,-0.4368836
2509078658,96.33709,-12.395428,0.0,-0.7538966,-0.0,-0.025309753,0.0012013435,0.30532196,0.0,0.0,0.0,0.0,0.0,0.0,-0.00954289,0.004110921,-0.4440448
2509184059,96.33709,-12.395428,0.0,-0.7538966,0.0,-0.1206707,0.008076,0.3103559,0.0,0.0,0.0,0.0,0.0,0.0,-0.029106895,0.009038027,-0.4430595
2509286717,96.33709,-12.395428,0.0,-0.7538966,0.0,-0.21524887,0.0023519516,0.310111,0.0,0.0,0.0,0.0,0.0,0.0,-0.024773747,0.0009448398,-0.43973923
2509383939,96.33709,-12.395428,0.0,-0.7538966,0.0,-0.29263496,-0.0064026355,0.30793342,0.0,0.0,0.0,0.0,0.0,0.0,-0.025359796,-0.004784446,-0.44370663
2509487481,96.33709,-12.395428,0.0,-0.7538966,-0.0,-0.37467423,-0.028433608,0.3103869,0.0,0.0,0.0,0.0,0.0,0.0,-0.026062079,-0.014660152,-0.4560731
2509591569,96.33709,-12.395428,0.0,-0.7538966,-0.0,-0.4413841,-0.047955893,0.31026173,0.0,0.0,0.0,0.0,0.0,0.0,-0.03098542,-0.010935804,-0.46076125
2509687478,96.33709,-12.395428,0.0,-0.7538966,-0.0,-0.5048035,-0.07121811,0.3091283,0.0,0.0,0.0,0.0,0.0,0.0,-0.03916251,-0.004130002,-0.45563552
2509789392,96.33709,-12.395428,0.0,-0.7538966,-0.0,-0.5584598,-0.089208364,0.31064305,0.0,0.0,0.0,0.0,0.0,0.0,-0.03749785,-0.0071843136,-0.44976294
2509893782,96.33709,-12.395428,0.0,-0.7538966,0.0,-0.61219597,-0.11380148,0.30793515,0.0,0.0,0.0,0.0,0.0,0.0,-0.032329947,-0.017904889,-0.4540358
2509996404,96.33709,-12.395428,0.0,-0.7538966,0.0,-0.64990693,-0.13031678,0.308612,0.0,0.0,0.0,0.0,0.0,0.0,-0.029455673,-0.019870251,-0.45076364
2510092413,96.33709,-12.395428,0.0,-0.7538966,-0.0,-0.6852043,-0.15336336,0.3101037,0.0,0.0,0.0,0.0,0.0,0.0,-0.03170658,-0.017914325,-0.4532613
2510197226,96.33709,-12.395428,0.0,-0.7538966,-0.0,-0.7079628,-0.1678719,0.30953786,0.0,0.0,0.0,0.0,0.0,0.0,-0.030820906,-0.022257563,-0.44954005
2510301113,96.33709,-12.395428,0.0,-0.7538966,0.0,-0.7253795,-0.18861818,0.31065392,0.0,0.0,0.0,0.0,0.0,0.0,-0.035581008,-0.016551256,-0.4457398
2510397215,96.33709,-12.395428,0.0,-0.7538966,0.0,-0.7303806,-0.2024137,0.30793515,0.0,0.0,0.0,0.0,0.0,0.0,-0.02585049,-0.025459195,-0.45245668
2510501070,96.33709,-12.395428,0.0,-0.7538966,0.0,-0.7279236,-0.22988424,0.3103661,0.0,0.0,0.0,0.0,0.0,0.0,-0.02927665,-0.022391083,-0.44894508
2510607102,96.33709,-12.395428,0.0,-0.7538966,0.0,-0.71292037,-0.24552889,0.30924818,0.0,0.0,0.0,0.0,0.0,0.0,-0.0189411,-0.02314109,-0.45725447
2510703255,96.33709,-12.395428,0.0,-0.7538966,0.0,-0.6944237,-0.2655132,0.30986553,0.0,0.0,0.0,0.0,0.0,0.0,-0.020203924,-0.024361953,-0.4529487
2510805903,96.33709,-12.395428,0.0,-0.7538966,0.0,-0.66665685,-0.2742189,0.3152297,0.0,0.0,0.0,0.0,0.0,0.0,-0.01783897,-0.023246579,-0.4551868
2510909884,96.33709,-12.395428,0.0,-0.7538966,0.0,-0.64097744,-0.29594725,0.3098731,0.0,0.0,0.0,0.0,0.0,0.0,-0.019933764,-0.015458924,-0.45988125
2511006726,96.33709,-12.395428,0.0,-0.7538966,0.0,-0.61126095,-0.30050984,0.30957997,0.0,0.0,0.0,0.0,0.0,0.0,-0.011938568,-0.020086933,-0.46286348
2511112280,96.33709,-12.395428,0.0,-0.7538966,0.0,-0.57560843,-0.32277727,0.31039193,0.0,0.0,0.0,0.0,0.0,0.0,-0.010396972,-0.028350472,-0.4603762
2511214624,96.33709,-12.395428,0.0,-0.7538966,0.0,-0.53752786,-0.32906485,0.3102612,0.0,0.0,0.0,0.0,0.0,0.0,-0.01188995,-0.02242558,-0.45875362
2511310700,96.33709,-12.395428,0.0,-0.7538966,0.0,-0.49920806,-0.34511265,0.31025907,0.0,0.0,0.0,0.0,0.0,0.0,-0.009457137,-0.017615596,-0.4533617
2511415613,96.33709,-12.395428,0.0,-0.7538966,0.0,-0.45766297,-0.34692553,0.3105241,0.0,0.0,0.0,0.0,0.0,0.0,-0.0058945455,-0.027170077,-0.4484594
2511519659,96.33709,-12.395428,0.0,-0.7538966,0.0,-0.41195753,-0.36100736,0.31026107,0.0,0.0,0.0,0.0,0.0,0.0,-0.0036621818,-0.025778098,-0.46215892
2511615516,96.33709,-12.395428,0.0,-0.7538966,0.0,-0.37112275,-0.36027712,0.31025907,0.0,0.0,0.0,0.0,0.0,0.0,-0.003747358,-0.018875714,-0.4566818
2511716519,96.33709,-12.395428,0.0,-0.7538966,0.0,-0.32247466,-0.37578586,0.30763912,0.0,0.0,0.0,0.0,0.0,0.0,0.0011823357,-0.023412103,-0.45317197
2511821130,96.33709,-12.395428,0.0,-0.7538966,0.0,-0.27819708,-0.37476662,0.31047207,0.0,0.0,0.0,0.0,0.0,0.0,-0.0013327622,-0.021632409,-0.45291322
2511924363,96.33709,-12.395428,0.0,-0.7538966,0.0,-0.23227425,-0.37938356,0.31025442,0.0,0.0,0.0,0.0,0.0,0.0,0.0017177883,-0.024507558,-0.44958377
2512029659,96.33709,-12.395428,0.0,-0.7538966,0.0,-0.19163513,-0.3726439,0.3102587,0.0,0.0,0.0,0.0,0.0,0.0,0.0062314346,-0.025291003,-0.4472164
2512133133,96.33709,-12.395428,0.0,-0.7538966,0.0,-0.14636458,-0.37405905,0.31037086,0.0,0.0,0.0,0.0,0.0,0.0,0.0064889034,-0.020907667,-0.44815964
2512229819,96.33709,-12.395428,0.0,-0.7538966,0.0,-0.11103821,-0.36639073,0.30804694,0.0,0.0,0.0,0.0,0.0,0.0,0.0053344434,-0.023416499,-0.44769987
2512333212,96.33709,-12.395428,0.0,-0.7538966,0.0,-0.068985745,-0.36774158,0.31024715,0.0,0.0,0.0,0.0,0.0,0.0,0.009132047,-0.022810042,-0.4474501
2512438727,96.33709,-12.395428,0.0,-0.7538966,0.0,-0.032318495,-0.36047825,0.3102612,0.0,0.0,0.0,0.0,0.0,0.0,0.005284986,-0.015020272,-0.44503635
2512542171,96.33709,-12.395428,0.0,-0.7538966,0.0,0.005225754,-0.3517282,0.3102592,0.0,0.0,0.0,0.0,0.0,0.0,0.007945167,-0.017925248,-0.45043027
2512637918,96.33709,-12.395428,0.0,-0.7538966,0.0,0.0357975,-0.34002188,0.3128793,0.0,0.0,0.0,0.0,0.0,0.0,0.007330111,-0.012733981,-0.44294205
2512741909,96.33709,-12.395428,0.0,-0.7538966,0.0,0.0724575,-0.33419728,0.31102413,0.0,0.0,0.0,0.0,0.0,0.0,0.012249541,-0.015502905,-0.45284882
2512847224,96.33709,-12.395428,0.0,-0.7538966,0.0,0.105638504,-0.32359174,0.312188,0.0,0.0,0.0,0.0,0.0,0.0,0.010398154,-0.01730448,-0.45163053
2512942813,96.33709,-12.395428,0.0,-0.7538966,0.0,0.13971825,-0.3154351,0.31245556,0.0,0.0,0.0,0.0,0.0,0.0,0.01749012,-0.017337106,-0.45655286
2513046677,96.33709,-12.395428,0.0,-0.7538966,0.0,0.17055091,-0.30339995,0.31179222,0.0,0.0,0.0,0.0,0.0,0.0,0.008005122,-0.012654292,-0.45369592
2513150778,96.33709,-12.395428,0.0,-0.7538966,0.0,0.20123138,-0.2959672,0.31127024,0.0,0.0,0.0,0.0,0.0,0.0,0.012978077,-0.016937688,-0.4476837
2513246675,96.33709,-12.395428,0.0,-0.7538966,0.0,0.22694702,-0.28798994,0.31178984,0.0,0.0,0.0,0.0,0.0,0.0,0.010536831,-0.011696257,-0.45358446
2513347604,96.33709,-12.395428,0.0,-0.7538966,0.0,0.25677946,-0.28444389,0.31538323,0.0,0.0,0.0,0.0,0.0,0.0,0.008550098,-0.011939124,-0.45369256
2513451492,96.33709,-12.395428,0.0,-0.7538966,0.0,0.28201675,-0.2781382,0.3108754,0.0,0.0,0.0,0.0,0.0,0.0,0.017874224,-0.01769287,-0.44837537
2513555557,96.33709,-12.395428,0.0,-0.7538966,0.0,0.30534056,-0.2722248,0.3124818,0.0,0.0,0.0,0.0,0.0,0.0,0.021401929,-0.023304842,-0.45206997
2513659674,96.33709,-12.395428,0.0,-0.7538966,0.0,0.32999802,-0.27001327,0.31266207,0.0,0.0,0.0,0.0,0.0,0.0,0.009790923,-0.014273078,-0.45474124
2513756434,96.33709,-12.395428,0.0,-0.7538966,0.0,0.34816855,-0.26554132,0.31512243,0.0,0.0,0.0,0.0,0.0,0.0,0.0128885545,-0.015355842,-0.44535017
2513860577,96.33709,-12.395428,0.0,-0.7538966,0.0,0.3671074,-0.2598834,0.3126781,0.0,0.0,0.0,0.0,0.0,0.0,0.016835414,-0.017514639,-0.44985723
2513956554,96.33709,-12.395428,0.0,-0.7538966,0.0,0.38535765,-0.25621775,0.3133246,0.0,0.0,0.0,0.0,0.0,0.0,0.017762836,-0.02437474,-0.44786054
2514060488,96.33709,-12.395428,0.0,-0.7538966,0.0,0.40187567,-0.25089687,0.31331667,0.0,0.0,0.0,0.0,0.0,0.0,0.015368833,-0.013106923,-0.44239575
2514165118,96.33709,-12.395428,0.0,-0.7538966,0.0,0.41555253,-0.24327387,0.31507698,0.0,0.0,0.0,0.0,0.0,0.0,0.017848745,-0.018865356,-0.4383001
2514261494,96.33709,-12.395428,0.0,-0.7538966,0.0,0.42758408,-0.23302169,0.31264034,0.0,0.0,0.0,0.0,0.0,0.0,0.01099984,-0.0079764435,-0.43688035
2514365138,96.33709,-12.395428,0.0,-0.7538966,0.0,0.43741226,-0.21846151,0.31267056,0.0,0.0,0.0,0.0,0.0,0.0,0.014439646,-0.011449768,-0.44439834
2514469497,96.33709,-12.395428,0.0,-0.7538966,0.0,0.44801596,-0.20596156,0.31154042,0.0,0.0,0.0,0.0,0.0,0.0,0.020339891,-0.014450926,-0.44607902
2514566039,96.33709,-12.395428,0.0,-0.7538966,0.0,0.45372733,-0.19327044,0.31304407,0.0,0.0,0.0,0.0,0.0,0.0,0.0151281,-0.010243972,-0.44065815
2514670283,96.33709,-12.395428,0.0,-0.7538966,0.0,0.4613594,-0.18141918,0.31412584,0.0,0.0,0.0,0.0,0.0,0.0,0.019494195,-0.016977016,-0.4340314
2514774158,96.33709,-12.395428,0.0,-0.7538966,0.0,0.46579513,-0.17005715,0.31126466,0.0,0.0,0.0,0.0,0.0,0.0,0.01776734,-0.02025638,-0.4386956
2514869898,96.33709,-12.395428,0.0,-0.7538966,0.0,0.47333297,-0.16407217,0.31496242,0.0,0.0,0.0,0.0,0.0,0.0,0.014325442,-0.016609412,-0.4469634
2514974857,96.33709,-12.395428,0.0,-0.7538966,0.0,0.47765273,-0.15835628,0.3122219,0.0,0.0,0.0,0.0,0.0,0.0,0.016876064,-0.025416734,-0.44184533
2515078859,96.33709,-12.395428,0.0,-0.7538966,0.0,0.4859226,-0.15265489,0.3143718,0.0,0.0,0.0,0.0,0.0,0.0,0.018789053,-0.01928326,-0.439617
2515174998,96.33709,-12.395428,0.0,-0.7538966,0.0,0.49004668,-0.1459279,0.31180283,0.0,0.0,0.0,0.0,0.0,0.0,0.019310854,-0.021701805,-0.44291466
2515279512,96.33709,-12.395428,0.0,-0.7538966,0.0,0.4978672,-0.13953614,0.3116606,0.0,0.0,0.0,0.0,0.0,0.0,0.024116062,-0.028311133,-0.44199178
2515383608,96.33709,-12.395428,0.0,-0.7538966,0.0,0.5013824,-0.13178177,0.31181502,0.0,0.0,0.0,0.0,0.0,0.0,0.0149868,-0.015815957,-0.448909
2515479529,96.33709,-12.395428,0.0,-0.7538966,0.0,0.50705034,-0.12423033,0.31523606,0.0,0.0,0.0,0.0,0.0,0.0,0.02254625,-0.019507568,-0.44627538
2515588519,96.33709,-12.395428,0.0,-0.7538966,0.0,0.5073837,-0.11541323,0.31498772,0.0,0.0,0.0,0.0,0.0,0.0,0.023400143,-0.01612172,-0.45023954
2515692555,96.33709,-12.395428,0.0,-0.7538966,0.0,0.5154362,-0.110365964,0.31401443,0.0,0.0,0.0,0.0,0.0,0.0,0.021599062,-0.018708704,-0.45090553
2515788412,96.33709,-12.395428,0.0,-0.7538966,0.0,0.51131207,-0.10403399,0.31261188,0.0,0.0,0.0,0.0,0.0,0.0,0.015062643,-0.017211273,-0.44361752
2515892603,96.33709,-12.395428,0.0,-0.7538966,0.0,0.51365316,-0.09217548,0.3140878,0.0,0.0,0.0,0.0,0.0,0.0,0.017841417,-0.016221505,-0.44365403
2515996246,96.33709,-12.395428,0.0,-0.7538966,0.0,0.50713,-0.07871971,0.31141898,0.0,0.0,0.0,0.0,0.0,0.0,0.019070745,-0.020869613,-0.4491236
2516093392,96.33709,-12.395428,0.0,-0.7538966,0.0,0.5075649,-0.06543789,0.31111777,0.0,0.0,0.0,0.0,0.0,0.0,0.013977632,-0.011436436,-0.44996643
2516197393,96.33709,-12.395428,0.0,-0.7538966,0.0,0.49706268,-0.05021634,0.30999258,0.0,0.0,0.0,0.0,0.0,0.0,0.016248278,-0.009303984,-0.448905
2516301093,96.33709,-12.395428,0.0,-0.7538966,0.0,0.4919239,-0.03190627,0.31189978,0.0,0.0,0.0,0.0,0.0,0.0,0.015969016,-0.014047414,-0.4447575
2516397218,96.33709,-12.395428,0.0,-0.7538966,0.0,0.47981262,-0.015278625,0.31028596,0.0,0.0,0.0,0.0,0.0,0.0,0.011740736,-0.006665282,-0.4424044
2516501918,96.33709,-12.395428,0.0,-0.7538966,0.0,0.4758045,0.00010781288,0.30999455,0.0,0.0,0.0,0.0,0.0,0.0,0.014460186,-0.012928508,-0.44022423
2516606498,96.33709,-12.395428,0.0,-0.7538966,0.0,0.4630844,0.012459182,0.31042132,0.0,0.0,0.0,0.0,0.0,0.0,0.012835249,-0.018093023,-0.44685298
2516702297,96.33709,-12.395428,0.0,-0.7538966,0.0,0.46006927,0.02431135,0.3149403,0.0,0.0,0.0,0.0,0.0,0.0,0.012382418,-0.015074335,-0.4402419
2516806050,96.33709,-12.395428,0.0,-0.7538966,0.0,0.4449356,0.035689685,0.31152254,0.0,0.0,0.0,0.0,0.0,0.0,0.016727451,-0.019534823,-0.43586534
2516910702,96.33709,-12.395428,0.0,-0.7538966,0.0,0.43582496,0.053708933,0.31166813,0.0,0.0,0.0,0.0,0.0,0.0,0.012876976,-0.0132342195,-0.44072694
2517006849,96.33709,-12.395428,0.0,-0.7538966,0.0,0.41856766,0.06736674,0.31029788,0.0,0.0,0.0,0.0,0.0,0.0,0.011880491,-0.016583942,-0.4457197
2517110843,96.33709,-12.395428,0.0,-0.7538966,0.0,0.41217497,0.08275952,0.31041232,0.0,0.0,0.0,0.0,0.0,0.0,0.014514897,-0.02246866,-0.4483233
2517214718,96.33709,-12.395428,0.0,-0.7538966,0.0,0.3942581,0.09352178,0.31358036,0.0,0.0,0.0,0.0,0.0,0.0,0.007856628,-0.015375718,-0.4423552
2517311682,96.33709,-12.395428,0.0,-0.7538966,0.0,0.38687247,0.10345235,0.3101363,0.0,0.0,0.0,0.0,0.0,0.0,0.01208299,-0.015408391,-0.44710782
2517415497,96.33709,-12.395428,0.0,-0.7538966,0.0,0.36771622,0.112392664,0.31205183,0.0,0.0,0.0,0.0,0.0,0.0,0.0020626383,-0.0132668335,-0.4431522
2517519742,96.33709,-12.395428,0.0,-0.7538966,0.0,0.35920715,0.122884035,0.31358513,0.0,0.0,0.0,0.0,0.0,0.0,0.0017177677,-0.010297988,-0.44390136
2517621214,96.33709,-12.395428,0.0,-0.7538966,0.0,0.34310952,0.13043094,0.30987057,0.0,0.0,0.0,0.0,0.0,0.0,-0.00066952687,-0.009155221,-0.4449997
2517716275,96.33709,-12.395428,0.0,-0.7538966,0.0,0.3359848,0.14428806,0.31355825,0.0,0.0,0.0,0.0,0.0,0.0,0.0033739996,-0.0039773006,-0.43631017
2517821045,96.33709,-12.395428,0.0,-0.7538966,0.0,0.31860426,0.15634045,0.31111392,0.0,0.0,0.0,0.0,0.0,0.0,0.0013601212,-0.0067555886,-0.4428612
2517924271,96.33709,-12.395428,0.0,-0.7538966,0.0,0.3108345,0.17208476,0.31495342,0.0,0.0,0.0,0.0,0.0,0.0,-0.0047155116,-0.00089988485,-0.4483809
2518022035,96.33709,-12.395428,0.0,-0.7538966,0.0,0.29571533,0.18375029,0.31499472,0.0,0.0,0.0,0.0,0.0,0.0,0.0029734499,-0.005168098,-0.43965855
2518125251,96.33709,-12.395428,0.0,-0.7538966,0.0,0.28722802,0.20259942,0.31499472,0.0,0.0,0.0,0.0,0.0,0.0,-0.0032165218,0.0015146043,-0.44499293
2518229825,96.33709,-12.395428,0.0,-0.7538966,0.0,0.27207986,0.21643753,0.31499472,0.0,0.0,0.0,0.0,0.0,0.0,-0.0038846014,0.0060965363,-0.4476865
2518325274,96.33709,-12.395428,0.0,-0.7538966,0.0,0.26857185,0.23320289,0.31499472,0.0,0.0,0.0,0.0,0.0,0.0,0.004285513,-0.0018609585,-0.4478175
2518430082,96.33709,-12.395428,0.0,-0.7538966,0.0,0.25910607,0.24332733,0.31499472,0.0,0.0,0.0,0.0,0.0,0.0,0.0034696609,-0.0011717854,-0.45387775
2518534433,96.07585,-12.651588,-17.206587,-0.05027182,0.0,0.30652407,0.13530813,0.41919383,0.0,0.0,0.0,0.0,0.0,0.0,0.010445459,-0.018473165,-0.41884544
2518629978,96.1029,-12.638575,-17.165836,-0.749031,0.0,0.28543848,0.15211059,0.42509162,0.0,0.0,0.0,0.0,0.0,0.0,0.008564216,-0.01096833,-0.37119693
2518734100,96.125534,-12.626289,-17.123728,-0.749031,0.0,0.20815253,0.12063589,0.39073113,0.0,0.0,0.0,0.0,0.0,0.0,0.0067238873,-0.022054296,-0.39146757
2518840015,96.13689,-12.619021,-17.088272,-0.749031,0.0,0.09081234,0.06975523,0.28470227,0.0,0.0,0.0,0.0,0.0,0.0,-0.0031025056,-0.020214742,-0.45013708
2518942835,96.13827,-12.6172285,-17.065828,-0.749031,0.0,0.015096532,0.017706756,0.09911336,0.0,0.0,0.0,0.0,0.0,0.0,-0.011273264,-0.014517919,-0.5114471
2519038901,96.13535,-12.619519,-17.060463,-0.749031,0.0,-0.014990242,-0.012881624,-0.14496404,0.0,0.0,0.0,0.0,0.0,0.0,-0.013458387,-0.019819507,-0.5636627
2519142787,96.132385,-12.622845,-17.077374,-0.749031,0.0,-0.006323713,0.0029088128,-0.46665502,0.0,0.0,0.0,0.0,0.0,0.0,-0.012036262,-0.018546414,-0.6013149
2519244929,96.1305,-12.624796,-17.122215,-0.749031,0.0,-0.01055847,0.009177433,-0.8316874,0.0,0.0,0.0,0.0,0.0,0.0,-0.005897473,-0.015696442,-0.6265131
2519347930,96.12863,-12.626728,-17.201174,-0.749031,0.0,-0.012663037,0.021586845,-1.2394533,0.0,0.0,0.0,0.0,0.0,0.0,-0.009696852,-0.014031178,-0.6429268
2519451727,96.12676,-12.628508,-17.315285,-0.749031,0.0,-0.017658856,0.030490125,-1.6046712,0.0,0.0,0.0,0.0,0.0,0.0,-0.005351988,-0.013362957,-0.639606
2519548418,96.12511,-12.630088,-17.448015,-0.749031,0.0,-0.018743902,0.0413644,-1.8885242,0.0,0.0,0.0,0.0,0.0,0.0,-0.012626031,-0.012421124,-0.6201416
2519652643,96.12337,-12.631685,-17.614176,-0.749031,0.0,-0.020987796,0.053376716,-2.1354206,0.0,0.0,0.0,0.0,0.0,0.0,-0.010260496,-0.012373339,-0.60410166
2519757854,96.12166,-12.633182,-17.800983,-0.749031,0.0,-0.022765623,0.06818866,-2.3265672,0.0,0.0,0.0,0.0,0.0,0.0,-0.010237515,-0.008069637,-0.59041655
2519860367,96.12006,-12.634571,-17.995571,-0.749031,0.0,-0.022263374,0.084018305,-2.4472897,0.0,0.0,0.0,0.0,0.0,0.0,-0.008802541,-0.0050628567,-0.57256097
2519957628,96.118614,-12.635786,-18.186512,-0.749031,0.0,-0.022248566,0.09906952,-2.505023,0.0,0.0,0.0,0.0,0.0,0.0,-0.009048788,-0.0077999597,-0.5551494
2520061173,96.117096,-12.637018,-18.392248,-0.749031,0.0,-0.023594614,0.114691675,-2.4967282,0.0,0.0,0.0,0.0,0.0,0.0,-0.009265894,-0.0054150186,-0.5301708
2520166447,96.115585,-12.638195,-18.597197,-0.749031,0.0,-0.02464325,0.1288033,-2.4252748,0.0,0.0,0.0,0.0,0.0,0.0,-0.008055124,-0.008517546,-0.50298506
2520269160,96.11417,-12.639276,-18.788557,-0.749031,0.0,-0.024559915,0.13795473,-2.283511,0.0,0.0,0.0,0.0,0.0,0.0,-0.007792855,-0.006112269,-0.4694819
2520365337,96.112854,-12.640235,-18.954632,-0.749031,0.0,-0.020112168,0.14578962,-2.1081843,0.0,0.0,0.0,0.0,0.0,0.0,-0.004663462,-0.0035602367,-0.45186168
2520470021,96.1115,-12.641218,-19.119944,-0.749031,0.0,-0.014128128,0.15545149,-1.9301369,0.0,0.0,0.0,0.0,0.0,0.0,-0.008932946,-0.0035912637,-0.4368349
2520575262,96.11017,-12.642092,-19.273151,-0.749031,0.0,-0.0073794206,0.16278216,-1.7788,0.0,0.0,0.0,0.0,0.0,0.0,-0.00751092,-0.004112929,-0.43062407
2520671645,96.109,-12.642896,-19.405386,-0.749031,0.0,-0.0005695671,0.17098029,-1.6673809,0.0,0.0,0.0,0.0,0.0,0.0,0.0038976518,-0.0034511434,-0.43418324
2520774770,96.107796,-12.643713,-19.54031,-0.749031,0.0,0.0059410604,0.17566298,-1.5682883,0.0,0.0,0.0,0.0,0.0,0.0,-0.0043456424,0.0013903966,-0.44140863
2520878811,96.1066,-12.644486,-19.67112,-0.749031,0.0,0.013792023,0.18193829,-1.4898164,0.0,0.0,0.0,0.0,0.0,0.0,-0.0010584644,-0.002957048,-0.44409007
2520974713,96.10552,-12.645124,-19.78779,-0.749031,0.0,0.018200735,0.18603562,-1.4273607,0.0,0.0,0.0,0.0,0.0,0.0,-0.008145458,0.009275287,-0.4529798
2521079241,96.10437,-12.645793,-19.910864,-0.749031,0.0,0.022303212,0.19073541,-1.3632838,0.0,0.0,0.0,0.0,0.0,0.0,0.0017531011,-0.009968962,-0.4523714
2521183595,96.102325,-12.646152,-20.03009,-0.749031,0.0,0.019678582,0.1915523,-1.2989064,0.0,0.0,0.0,0.0,0.0,0.0,0.002807829,0.0007872386,-0.4579374
2521279581,96.10044,-12.646435,-20.136276,-0.749031,0.0,0.026166715,0.19209085,-1.239101,0.0,0.0,0.0,0.0,0.0,0.0,-0.005053905,0.0015804488,-0.4482351
2521383895,96.098495,-12.646749,-20.248068,-0.749031,0.0,0.029252643,0.19025856,-1.1764286,0.0,0.0,0.0,0.0,0.0,0.0,0.0025523482,-0.007349614,-0.44361258
2521488101,96.09668,-12.6470585,-20.35632,-0.749031,0.0,0.034133937,0.18655452,-1.1193659,0.0,0.0,0.0,0.0,0.0,0.0,-0.0037212034,-0.0030332431,-0.4464119
2521588437,96.09507,-12.64735,-20.457533,-0.749031,0.0,0.035839707,0.1827988,-1.0649738,0.0,0.0,0.0,0.0,0.0,0.0,-0.0019746486,0.0014512343,-0.43774113
2521684530,96.09359,-12.647611,-20.551424,-0.749031,0.0,0.039728284,0.17493114,-1.0127869,0.0,0.0,0.0,0.0,0.0,0.0,-0.0046746642,-0.0005758265,-0.44051465
2521788400,96.09209,-12.647874,-20.649788,-0.749031,0.0,0.041494455,0.16468066,-0.9608951,0.0,0.0,0.0,0.0,0.0,0.0,-0.0029074624,0.0011592116,-0.43881315
2521892620,96.09066,-12.648171,-20.745405,-0.749031,0.0,0.04586226,0.15515652,-0.9142858,0.0,0.0,0.0,0.0,0.0,0.0,0.0002625375,-0.010198462,-0.44244188
2521989248,96.08942,-12.648427,-20.831432,-0.749031,0.0,0.04695859,0.14637642,-0.8734211,0.0,0.0,0.0,0.0,0.0,0.0,0.005097254,-0.011042067,-0.4440299
2522093358,96.08816,-12.648652,-20.921303,-0.749031,0.0,0.051152356,0.1301452,-0.83719593,0.0,0.0,0.0,0.0,0.0,0.0,-0.0010351025,-0.006153441,-0.4519695
2522197371,96.087,-12.648881,-21.008278,-0.749031,0.0,0.051950224,0.114634044,-0.8045052,0.0,0.0,0.0,0.0,0.0,0.0,-0.0011969275,-0.008765569,-0.44947594
2522301143,96.08589,-12.649116,-21.092325,-0.749031,0.0,0.054790106,0.09612754,-0.7734385,0.0,0.0,0.0,0.0,0.0,0.0,-0.0014767312,-0.014421955,-0.45483404
2522397986,96.08492,-12.649321,-21.168404,-0.749031,0.0,0.056768544,0.07919272,-0.74622893,0.0,0.0,0.0,0.0,0.0,0.0,0.002367735,-0.014992505,-0.4506284
2522502308,96.08394,-12.649538,-21.247808,-0.749031,0.0,0.06307398,0.061447356,-0.7183226,0.0,0.0,0.0,0.0,0.0,0.0,0.0007660098,-0.010290362,-0.45523944
2522598031,96.08312,-12.649734,-21.31858,-0.749031,0.0,0.065939136,0.046761964,-0.6944358,0.0,0.0,0.0,0.0,0.0,0.0,0.0029921844,-0.014878927,-0.45083246
2522702170,96.082245,-12.649926,-21.39321,-0.749031,0.0,0.07234734,0.033290308,-0.67474484,0.0,0.0,0.0,0.0,0.0,0.0,0.011944336,-0.019150285,-0.4636013
2522806782,96.081436,-12.650118,-21.465832,-0.749031,0.0,0.0747212,0.024365636,-0.65806335,0.0,0.0,0.0,0.0,0.0,0.0,0.0027877884,-0.009684116,-0.46599635
2522902839,96.08074,-12.650297,-21.530523,-0.749031,0.0,0.08244779,0.016175587,-0.6397796,0.0,0.0,0.0,0.0,0.0,0.0,0.0070633716,-0.010342577,-0.45878732
2523006861,96.08002,-12.650486,-21.5985,-0.749031,0.0,0.08623951,0.009295787,-0.6229409,0.0,0.0,0.0,0.0,0.0,0.0,0.004749462,-0.016308762,-0.45913577
2523111113,96.07934,-12.650664,-21.664433,-0.749031,0.0,0.088177286,0.0027961517,-0.6074118,0.0,0.0,0.0,0.0,0.0,0.0,0.00051681546,-0.014946824,-0.4605968
2523208264,96.07874,-12.650858,-21.724018,-0.749031,0.0,0.0877217,-0.0045218808,-0.5916133,0.0,0.0,0.0,0.0,0.0,0.0,-0.0010579969,-0.00822801,-0.45943177
2523311754,96.0781,-12.65079,-21.785793,3.0201602,0.0,0.079674885,-0.002363517,-0.572579,0.0,0.0,0.0,0.0,0.0,0.0,0.004176892,-0.016972475,-0.43349823
2523415573,96.074905,-12.648278,-21.845716,3.0201602,0.0,0.020111628,0.022494765,-0.5358217,0.0,0.0,0.0,0.0,0.0,0.0,-0.0042691976,-0.01325167,-0.39085168
2523513751,96.06456,-12.643036,-21.900614,3.0201602,0.0,-0.09371709,0.04736902,-0.4918254,0.0,0.0,0.0,0.0,0.0,0.0,-0.012133822,-0.007230432,-0.39520764
2523616409,96.04085,-12.634561,-21.956362,3.0201602,0.0,-0.27621043,0.07904286,-0.45084727,0.0,0.0,0.0,0.0,0.0,0.0,-0.026552455,-0.0040387874,-0.4167363
2523721787,95.99736,-12.622714,-22.01165,3.0201602,0.0,-0.52754956,0.118407965,-0.42369485,0.0,0.0,0.0,0.0,0.0,0.0,-0.041380208,0.0026528146,-0.43668848
2523816591,95.93764,-12.609477,-22.05941,3.0201602,0.0,-0.8138968,0.15784205,-0.40414184,0.0,0.0,0.0,0.0,0.0,0.0,-0.06038739,0.0079228915,-0.4439719
2523926506,95.8421,-12.5916395,-22.1113,3.0201602,0.0,-1.1943552,0.20858356,-0.3826742,0.0,0.0,0.0,0.0,0.0,0.0,-0.077384315,0.019122828,-0.44906786
2524029175,95.72853,-12.572945,-22.156416,3.0201602,0.0,-1.5521569,0.25944638,-0.37142092,0.0,0.0,0.0,0.0,0.0,0.0,-0.09232638,0.023429327,-0.45114663
2524125171,95.60461,-12.554073,-22.195698,3.0201602,0.0,-1.872236,0.30944976,-0.36279324,0.0,0.0,0.0,0.0,0.0,0.0,-0.098512635,0.024170324,-0.45534483
2524231211,95.45102,-12.53196,-22.23602,3.0201602,0.0,-2.210961,0.36200976,-0.35280803,0.0,0.0,0.0,0.0,0.0,0.0,-0.10882243,0.023847919,-0.45433527
2524334058,95.28687,-12.509329,-22.272596,3.0201602,0.0,-2.5132053,0.41158536,-0.33557802,0.0,0.0,0.0,0.0,0.0,0.0,-0.1187498,0.027061738,-0.4521569
2524430139,95.12176,-12.487285,-22.30473,3.0201602,0.0,-2.7801473,0.4521179,-0.3214375,0.0,0.0,0.0,0.0,0.0,0.0,-0.11930925,0.029499313,-0.44614816
2524534316,94.929794,-12.462318,-22.337833,3.0201602,0.0,-3.0471058,0.48793578,-0.31116185,0.0,0.0,0.0,0.0,0.0,0.0,-0.123431414,0.026186198,-0.45477694
2524639340,94.72181,-12.435872,-22.369823,3.0201602,0.0,-3.304137,0.5199477,-0.3008815,0.0,0.0,0.0,0.0,0.0,0.0,-0.12497524,0.02604822,-0.4555773
2524742808,94.50198,-12.408448,-22.400272,3.0201602,0.0,-3.5388741,0.54482996,-0.2896799,0.0,0.0,0.0,0.0,0.0,0.0,-0.12793759,0.023735572,-0.45292354
2524838902,94.28365,-12.381639,-22.427797,3.0201602,0.0,-3.7507033,0.5653602,-0.28222913,0.0,0.0,0.0,0.0,0.0,0.0,-0.13236813,0.023876347,-0.45772704
2524942783,94.030365,-12.35097,-22.456993,3.0201602,0.0,-3.9707596,0.58218396,-0.27629396,0.0,0.0,0.0,0.0,0.0,0.0,-0.12540942,0.020230422,-0.45797586
2525046777,93.75729,-12.318332,-22.485807,3.0201602,0.0,-4.187725,0.5973074,-0.27204555,0.0,0.0,0.0,0.0,0.0,0.0,-0.119906306,0.01717724,-0.45924574
2525144715,93.48063,-12.285638,-22.512684,3.0201602,0.0,-4.392533,0.6093843,-0.269951,0.0,0.0,0.0,0.0,0.0,0.0,-0.12044762,0.019595161,-0.45645398
2525247579,93.16781,-12.249049,-22.540714,3.0201602,0.0,-4.600867,0.62029696,-0.26676986,0.0,0.0,0.0,0.0,0.0,0.0,-0.11872332,0.011389218,-0.45780534
2525351726,92.82707,-12.209486,-22.568949,3.0201602,0.0,-4.7931175,0.62809086,-0.2658822,0.0,0.0,0.0,0.0,0.0,0.0,-0.12552753,0.015271516,-0.45951152
2525453754,92.47106,-12.168151,-22.596449,3.0201602,0.0,-4.9583225,0.63780665,-0.26538885,0.0,0.0,0.0,0.0,0.0,0.0,-0.11984572,0.015029813,-0.46339643
2525549792,92.116745,-12.12674,-22.62223,3.0201602,0.0,-5.0832067,0.64547306,-0.26638,0.0,0.0,0.0,0.0,0.0,0.0,-0.119642265,0.012621543,-0.46185356
2525652571,91.719406,-12.079696,-22.649641,3.0201602,0.0,-5.1766396,0.6533037,-0.26521167,0.0,0.0,0.0,0.0,0.0,0.0,-0.10605773,0.009518677,-0.46141008
2525756442,91.29909,-12.0289545,-22.677263,3.0201602,0.0,-5.2374625,0.65928704,-0.26397133,0.0,0.0,0.0,0.0,0.0,0.0,-0.09870924,0.0049082376,-0.46137184
2525852588,90.89585,-11.980138,-22.70271,3.0201602,0.0,-5.2606306,0.6430509,-0.26121464,0.0,0.0,0.0,0.0,0.0,0.0,-0.09154998,-0.0013677902,-0.45729956
2525958474,90.43768,-11.925601,-22.730654,3.0201602,0.0,-5.248575,0.6200592,-0.25469017,0.0,0.0,0.0,0.0,0.0,0.0,-0.08272144,-0.0015769224,-0.4545377
2526061307,89.98095,-11.8714075,-22.757755,3.0201602,0.0,-5.187418,0.60434914,-0.24133733,0.0,0.0,0.0,0.0,0.0,0.0,-0.07366346,-0.00027640723,-0.44454032
2526165204,89.509865,-11.815283,-22.785004,3.0201602,0.0,-5.1439624,0.5887582,-0.2269369,0.0,0.0,0.0,0.0,0.0,0.0,-0.064406395,-0.003273799,-0.43678963
2526262053,89.0612,-11.761793,-22.810253,3.0201602,0.0,-5.1080546,0.5790165,-0.20597759,0.0,0.0,0.0,0.0,0.0,0.0,-0.05841371,-0.006105906,-0.43872407
2526367342,88.5647,-11.702542,-22.837385,3.0201602,0.0,-5.0770874,0.57061446,-0.18243667,0.0,0.0,0.0,0.0,0.0,0.0,-0.057922717,-0.0045926482,-0.43208808
2526463437,88.10249,-11.647392,-22.86191,3.0201602,0.0,-5.0473256,0.56580293,-0.15877849,0.0,0.0,0.0,0.0,0.0,0.0,-0.04435179,-0.006058704,-0.4319266
2526566053,87.60426,-11.587861,-22.887611,3.0201602,0.0,-5.0112276,0.5630832,-0.12642711,0.0,0.0,0.0,0.0,0.0,0.0,-0.04408009,-0.0064204843,-0.4274156
2526670793,87.08642,-11.525952,-22.913504,3.0201602,0.0,-4.984911,0.5624933,-0.09333776,0.0,0.0,0.0,0.0,0.0,0.0,-0.046711076,0.00036666027,-0.41812503
2526766834,86.60968,-11.468913,-22.936625,3.0201602,0.0,-4.962527,0.56648755,-0.067832634,0.0,0.0,0.0,0.0,0.0,0.0,-0.041633137,0.0030064539,-0.4126186
2526872187,86.087006,-11.406351,-22.961218,3.0201602,0.0,-4.941496,0.5737,-0.046208367,0.0,0.0,0.0,0.0,0.0,0.0,-0.04283107,0.00417653,-0.41706133
2526974886,85.57671,-11.345211,-22.984495,3.0201602,0.0,-4.9072933,0.5832757,-0.023260608,0.0,0.0,0.0,0.0,0.0,0.0,-0.042155094,0.007366392,-0.4168755
2527071772,85.096176,-11.287599,-23.005762,3.0201602,0.0,-4.876244,0.5941406,-0.0058358163,0.0,0.0,0.0,0.0,0.0,0.0,-0.022552084,0.003343641,-0.41455463
2527175693,84.5798,-11.225649,-23.027935,3.0201602,0.0,-4.8414955,0.60582596,0.0138130635,0.0,0.0,0.0,0.0,0.0,0.0,-0.024629714,0.0054512676,-0.41199303
2527279585,84.06406,-11.163735,-23.049393,3.0201602,0.0,-4.8066835,0.6167821,0.035359487,0.0,0.0,0.0,0.0,0.0,0.0,-0.028254224,0.0052051977,-0.4096
2527375567,83.58752,-11.106517,-23.06864,3.0201602,0.0,-4.772742,0.63051945,0.05066091,0.0,0.0,0.0,0.0,0.0,0.0,-0.01825988,0.007858137,-0.41502327
2527483700,83.050705,-11.041977,-23.089642,3.0201602,0.0,-4.737725,0.64798534,0.06272429,0.0,0.0,0.0,0.0,0.0,0.0,-0.017460566,0.005375974,-0.41256502
2527580700,82.56953,-10.98413,-23.107904,3.0201602,0.0,-4.710037,0.66267645,0.06892651,0.0,0.0,0.0,0.0,0.0,0.0,-0.023536408,0.002975557,-0.4198504
2527684397,82.05439,-10.922135,-23.126871,3.0201602,0.0,-4.6792927,0.684058,0.07322547,0.0,0.0,0.0,0.0,0.0,0.0,-0.016943991,0.0073896414,-0.42151847
2527789531,81.53283,-10.85936,-23.14547,3.0201602,0.0,-4.6593466,0.705488,0.073279545,0.0,0.0,0.0,0.0,0.0,0.0,-0.014405176,0.008567257,-0.42354825
2527893172,81.01803,-10.797379,-23.163263,3.0201602,0.0,-4.62906,0.7295251,0.06600934,0.0,0.0,0.0,0.0,0.0,0.0,-0.020619083,0.01436953,-0.42647156
2527990316,80.53615,-10.739332,-23.179428,3.0201602,0.0,-4.6192074,0.74981123,0.05653681,0.0,0.0,0.0,0.0,0.0,0.0,-0.023365205,0.01245419,-0.43243393
2528093187,80.0251,-10.677741,-23.19606,3.0201602,0.0,-4.5996895,0.778622,0.04266274,0.0,0.0,0.0,0.0,0.0,0.0,-0.030720431,0.016589466,-0.43973672
2528198625,79.50168,-10.614613,-23.212568,3.0201602,0.0,-4.597062,0.80519915,0.024881333,0.0,0.0,0.0,0.0,0.0,0.0,-0.029503038,0.017361019,-0.44209886
2528294014,79.02814,-10.557491,-23.227057,3.0201602,0.0,-4.585645,0.8287118,0.011048555,0.0,0.0,0.0,0.0,0.0,0.0,-0.020696862,0.018236136,-0.43874124
2528399443,78.50478,-10.494309,-23.242588,3.0201602,0.0,-4.5894113,0.8548244,-0.003078267,0.0,0.0,0.0,0.0,0.0,0.0,-0.037301894,0.02078786,-0.44346562
2528502216,77.99467,-10.432716,-23.257267,3.0201602,0.0,-4.5753703,0.8836206,-0.017154217,0.0,0.0,0.0,0.0,0.0,0.0,-0.03635459,0.020514175,-0.44537318
2528598107,77.51867,-10.375213,-23.270546,3.0201602,0.0,-4.5732007,0.9015732,-0.028989479,0.0,0.0,0.0,0.0,0.0,0.0,-0.027578918,0.02026487,-0.44454855
2528702787,76.999,-10.312444,-23.284618,3.0201602,0.0,-4.5599723,0.9313936,-0.042386487,0.0,0.0,0.0,0.0,0.0,0.0,-0.015847033,0.02058365,-0.44158608
2528808022,76.47741,-10.249394,-23.298306,3.0201602,0.0,-4.559128,0.95157087,-0.04929708,0.0,0.0,0.0,0.0,0.0,0.0,-0.015517447,0.020389104,-0.4319418
2528910890,75.965965,-10.187546,-23.311317,3.0201602,0.0,-4.5428743,0.97739166,-0.05641459,0.0,0.0,0.0,0.0,0.0,0.0,-0.021236185,0.021679105,-0.43034536
2529007737,75.48523,-10.129408,-23.323195,3.0201602,0.0,-4.5406537,0.9926175,-0.06218534,0.0,0.0,0.0,0.0,0.0,0.0,-0.02529746,0.019817367,-0.4376751
2529111534,74.96998,-10.067069,-23.335533,3.0201602,0.0,-4.5286674,1.0161405,-0.068412155,0.0,0.0,0.0,0.0,0.0,0.0,-0.025170509,0.021223295,-0.43910006
2529217608,74.443954,-10.003394,-23.347738,3.0201602,0.0,-4.536188,1.032227,-0.07332873,0.0,0.0,0.0,0.0,0.0,0.0,-0.03125575,0.021700127,-0.441969
2529319623,73.93709,-9.942019,-23.359135,3.0201602,0.0,-4.518886,1.0528727,-0.08083151,0.0,0.0,0.0,0.0,0.0,0.0,-0.024870548,0.019313917,-0.44305184
2529421230,73.43277,-9.880936,-23.370121,3.0201602,0.0,-4.522767,1.0635219,-0.082848094,0.0,0.0,0.0,0.0,0.0,0.0,-0.023914346,0.012843916,-0.43722415
2529524449,72.920395,-9.818874,-23.380945,3.0201602,0.0,-4.514328,1.0841125,-0.08624763,0.0,0.0,0.0,0.0,0.0,0.0,-0.02003867,0.017870998,-0.44353223
2529621322,72.43957,-9.760625,-23.390806,3.0201602,0.0,-4.5254683,1.0918583,-0.08836442,0.0,0.0,0.0,0.0,0.0,0.0,-0.031115722,0.024720099,-0.43784037
2529724531,71.92725,-9.698544,-23.401003,3.0201602,0.0,-4.5186973,1.1064421,-0.09790874,0.0,0.0,0.0,0.0,0.0,0.0,-0.02489921,0.021284316,-0.4415452
2529830088,71.403336,-9.635025,-23.41112,3.0201602,0.0,-4.5287304,1.106776,-0.10930412,0.0,0.0,0.0,0.0,0.0,0.0,-0.013274567,0.015476922,-0.4435727
2529933374,70.89063,-9.572849,-23.420696,3.0201602,0.0,-4.5239162,1.1142449,-0.12087141,0.0,0.0,0.0,0.0,0.0,0.0,-0.01202457,0.015743483,-0.44720572
2530029198,70.41503,-9.515174,-23.429327,3.0201602,0.0,-4.527162,1.1110042,-0.1280182,0.0,0.0,0.0,0.0,0.0,0.0,-0.028147187,0.016454756,-0.44485593
2530133152,69.89906,-9.452613,-23.438433,3.0201602,0.0,-4.529204,1.1183646,-0.13256255,0.0,0.0,0.0,0.0,0.0,0.0,-0.030952455,0.018914413,-0.45292035
2530233962,69.39866,-9.391868,-23.446974,3.0201602,0.0,-4.5405602,1.1155369,-0.13590969,0.0,0.0,0.0,0.0,0.0,0.0,-0.028083568,0.019158069,-0.44976473
2530338517,68.88066,-9.3289995,-23.45555,3.0201602,0.0,-4.551706,1.1238576,-0.13598005,0.0,0.0,0.0,0.0,0.0,0.0,-0.024555828,0.020239953,-0.4469913
2530442049,68.365814,-9.266494,-23.463833,3.0201602,0.0,-4.561768,1.1241333,-0.14112878,0.0,0.0,0.0,0.0,0.0,0.0,-0.026420103,0.018408265,-0.45100406
2530537993,67.8896,-9.208692,-23.471254,3.0201602,0.0,-4.569505,1.1285994,-0.14914367,0.0,0.0,0.0,0.0,0.0,0.0,-0.03214674,0.0195091,-0.45802253
2530643303,67.367546,-9.1452875,-23.479134,3.0201602,0.0,-4.5832524,1.1279647,-0.16143565,0.0,0.0,0.0,0.0,0.0,0.0,-0.025815908,0.021133695,-0.46342364
2530747094,66.852295,-9.082695,-23.486696,3.0201602,0.0,-4.5948043,1.1340734,-0.17076543,0.0,0.0,0.0,0.0,0.0,0.0,-0.031503666,0.018686987,-0.45412043
2530850948,66.33629,-9.020014,-23.494003,3.0201602,0.0,-4.6101418,1.1368151,-0.1777494,0.0,0.0,0.0,0.0,0.0,0.0,-0.041300315,0.021967411,-0.45091707
2530946780,65.86063,-8.962233,-23.50054,3.0201602,0.0,-4.623029,1.1414379,-0.18268281,0.0,0.0,0.0,0.0,0.0,0.0,-0.037088603,0.01969872,-0.4600694
2531052056,65.338844,-8.898841,-23.507517,3.0201602,0.0,-4.639878,1.1425209,-0.18679836,0.0,0.0,0.0,0.0,0.0,0.0,-0.04481767,0.019789707,-0.45374528
2531155675,64.82375,-8.836244,-23.514185,3.0201602,0.0,-4.651654,1.1445761,-0.18884018,0.0,0.0,0.0,0.0,0.0,0.0,-0.037561346,0.02077721,-0.45445108
2531252109,64.345856,-8.778167,-23.520184,3.0201602,0.0,-4.6675725,1.1420765,-0.19078931,0.0,0.0,0.0,0.0,0.0,0.0,-0.03808818,0.022524495,-0.45016542
2531356587,63.82663,-8.715026,-23.526531,3.0201602,0.0,-4.6748457,1.1442776,-0.19313143,0.0,0.0,0.0,0.0,0.0,0.0,-0.03572204,0.020722209,-0.44739616
2531460555,63.310802,-8.652323,-23.532606,3.0201602,0.0,-4.684914,1.1420271,-0.20219387,0.0,0.0,0.0,0.0,0.0,0.0,-0.030174356,0.02186691,-0.45568988
2531564517,62.794834,-8.589588,-23.538498,3.0201602,0.0,-4.695334,1.1405416,-0.21234582,0.0,0.0,0.0,0.0,0.0,0.0,-0.03304385,0.017050102,-0.4639986
2531660385,62.31868,-8.531675,-23.543766,3.0201602,0.0,-4.705295,1.1389656,-0.2205898,0.0,0.0,0.0,0.0,0.0,0.0,-0.03455895,0.02177892,-0.4523916
2531765386,61.797554,-8.468285,-23.549368,3.0201602,0.0,-4.7127414,1.1370717,-0.22273885,0.0,0.0,0.0,0.0,0.0,0.0,-0.029268466,0.01663197,-0.45222747
2531869298,61.28178,-8.405542,-23.554758,3.0201602,0.0,-4.7187996,1.1337981,-0.2177475,0.0,0.0,0.0,0.0,0.0,0.0,-0.032818932,0.0182769,-0.4509248
2531965546,60.80442,-8.347474,-23.5596,3.0201602,0.0,-4.7216506,1.125632,-0.21109463,0.0,0.0,0.0,0.0,0.0,0.0,-0.0297108,0.015762793,-0.4496987
2532069308,60.289036,-8.284771,-23.56469,3.0201602,0.0,-4.7229176,1.1175522,-0.20462793,0.0,0.0,0.0,0.0,0.0,0.0,-0.023590231,0.0105711995,-0.44847244
2532174032,59.76931,-8.221547,-23.569645,3.0201602,0.0,-4.723899,1.1085174,-0.1973157,0.0,0.0,0.0,0.0,0.0,0.0,-0.03150857,0.01639628,-0.44444466
2532270125,59.29238,-8.163507,-23.57407,3.0201602,0.0,-4.7241383,1.100112,-0.18639162,0.0,0.0,0.0,0.0,0.0,0.0,-0.025492728,0.01712577,-0.43910104
2532374491,58.77498,-8.100536,-23.578691,3.0201602,0.0,-4.7286696,1.0931784,-0.17540763,0.0,0.0,0.0,0.0,0.0,0.0,-0.027277417,0.010607363,-0.4418836
2532477955,58.260796,-8.03794,-23.583178,3.0201602,0.0,-4.7310376,1.0856314,-0.16851917,0.0,0.0,0.0,0.0,0.0,0.0,-0.030168679,0.01163185,-0.4477083
2532575380,57.777596,-7.9791207,-23.587246,3.0201602,0.0,-4.7384076,1.0758345,-0.1674462,0.0,0.0,0.0,0.0,0.0,0.0,-0.024105124,0.018593995,-0.45188284
2532678924,57.26329,-7.9165063,-23.59148,3.0201602,0.0,-4.739494,1.069185,-0.1667955,0.0,0.0,0.0,0.0,0.0,0.0,-0.024054132,0.013351623,-0.44922367
2532782996,56.746735,-7.8536024,-23.595554,3.0201602,0.0,-4.742534,1.0587281,-0.16288853,0.0,0.0,0.0,0.0,0.0,0.0,-0.03239675,0.01294875,-0.4487634
2532879140,56.270473,-7.7956457,-23.599226,3.0201602,0.0,-4.7471366,1.0550735,-0.1556864,0.0,0.0,0.0,0.0,0.0,0.0,-0.021135699,0.015621735,-0.44990388
2532984037,55.749683,-7.732227,-23.60311,3.0201602,0.0,-4.755446,1.0467567,-0.14684576,0.0,0.0,0.0,0.0,0.0,0.0,-0.026573159,0.01485534,-0.44496015
2533087589,55.234924,-7.6695404,-23.60683,3.0201602,0.0,-4.7636123,1.0423927,-0.13669647,0.0,0.0,0.0,0.0,0.0,0.0,-0.03457781,0.014733879,-0.44229808
2533184193,54.75647,-7.6112695,-23.610195,3.0201602,0.0,-4.77304,1.0318611,-0.12600766,0.0,0.0,0.0,0.0,0.0,0.0,-0.018181855,0.013164993,-0.43758062
2533284380,54.258156,-7.5505757,-23.613594,3.0201602,0.0,-4.7757125,1.0260309,-0.110891566,0.0,0.0,0.0,0.0,0.0,0.0,-0.021622492,0.014671218,-0.43475577
2533388561,53.741096,-7.48761,-23.616995,3.0201602,0.0,-4.781876,1.0130863,-0.09273087,0.0,0.0,0.0,0.0,0.0,0.0,-0.024202092,0.010737004,-0.43848816
2533492597,53.224686,-7.424697,-23.620325,3.0201602,0.0,-4.788933,1.00767,-0.07603335,0.0,0.0,0.0,0.0,0.0,0.0,-0.02257156,0.01409693,-0.44139224
2533588560,52.748432,-7.3666787,-23.623257,3.0201602,0.0,-4.7961073,0.9958174,-0.06700657,0.0,0.0,0.0,0.0,0.0,0.0,-0.043783523,0.011954108,-0.443779
2533692417,52.23302,-7.3038898,-23.626366,3.0201602,0.0,-4.809516,0.9917752,-0.061017055,0.0,0.0,0.0,0.0,0.0,0.0,-0.044290356,0.01610328,-0.44419652
2533797306,51.712368,-7.240465,-23.62939,3.0201602,0.0,-4.8267894,0.9816636,-0.058178164,0.0,0.0,0.0,0.0,0.0,0.0,-0.039322026,0.015818596,-0.4558483
2533893326,51.235798,-7.1823997,-23.632084,3.0201602,0.0,-4.844035,0.9791661,-0.06168494,0.0,0.0,0.0,0.0,0.0,0.0,-0.04931102,0.016113844,-0.4584303
2533997167,50.72046,-7.1195765,-23.634909,3.0201602,0.0,-4.8607693,0.9670452,-0.06765622,0.0,0.0,0.0,0.0,0.0,0.0,-0.0402959,0.014681256,-0.45183548
2534097996,50.21998,-7.058604,-23.63758,3.0201602,0.0,-4.8730993,0.9634628,-0.065573394,0.0,0.0,0.0,0.0,0.0,0.0,-0.04257686,0.0171467,-0.450613
2534202153,49.703106,-6.9956164,-23.640251,3.0201602,0.0,-4.8870664,0.95481753,-0.06360953,0.0,0.0,0.0,0.0,0.0,0.0,-0.03567289,0.0106698815,-0.4518919
2534306193,49.18665,-6.932689,-23.642872,3.0201602,0.0,-4.8989463,0.9457273,-0.051823296,0.0,0.0,0.0,0.0,0.0,0.0,-0.03775436,0.010213428,-0.44065142
2534409998,48.6715,-6.8699226,-23.645372,3.0201602,0.0,-4.9056444,0.93396014,-0.038143203,0.0,0.0,0.0,0.0,0.0,0.0,-0.041140027,0.013694753,-0.4331972
2534506926,48.19035,-6.811271,-23.647648,3.0201602,0.0,-4.907453,0.9279051,-0.026224306,0.0,0.0,0.0,0.0,0.0,0.0,-0.024348713,0.0075766053,-0.43578547
2534610922,47.674175,-6.748355,-23.650015,3.0201602,0.0,-4.907138,0.9100393,-0.012965234,0.0,0.0,0.0,0.0,0.0,0.0,-0.028866034,0.009322435,-0.43389693
2534714749,47.15884,-6.6855326,-23.652273,3.0201602,0.0,-4.9066014,0.9007679,-0.008377435,0.0,0.0,0.0,0.0,0.0,0.0,-0.030277753,0.008887423,-0.44509864
2534810923,46.681522,-6.6273475,-23.654306,3.0201602,0.0,-4.910874,0.88724995,-0.009550605,0.0,0.0,0.0,0.0,0.0,0.0,-0.048991825,0.012554753,-0.44243497
2534915945,46.16063,-6.5638576,-23.656475,3.0201602,0.0,-4.914229,0.87659526,-0.0065381415,0.0,0.0,0.0,0.0,0.0,0.0,-0.03703443,0.011011024,-0.43373483
2535020314,45.642227,-6.5006695,-23.658567,3.0201602,0.0,-4.9154186,0.86270404,0.0050349236,0.0,0.0,0.0,0.0,0.0,0.0,-0.026326686,0.009353371,-0.42481157
2535123725,45.129234,-6.4381204,-23.660555,3.0201602,0.0,-4.9064546,0.8510777,0.019242026,0.0,0.0,0.0,0.0,0.0,0.0,-0.024807788,0.009149507,-0.4244403
2535219542,44.65339,-6.380142,-23.66234,3.0201602,0.0,-4.9030776,0.8348546,0.030957868,0.0,0.0,0.0,0.0,0.0,0.0,-0.02690911,0.006020489,-0.42424697
2535324463,44.13265,-6.3166437,-23.664259,3.0201602,0.0,-4.901611,0.8270023,0.045180596,0.0,0.0,0.0,0.0,0.0,0.0,-0.027639633,0.0076560937,-0.42179382
2535428564,43.61602,-6.2536693,-23.6661,3.0201602,0.0,-4.9029865,0.81330186,0.05869208,0.0,0.0,0.0,0.0,0.0,0.0,-0.03401737,0.005144944,-0.4313959
2535524362,43.140507,-6.195648,-23.667751,3.0201602,0.0,-4.9019933,0.80850625,0.06964442,0.0,0.0,0.0,0.0,0.0,0.0,-0.03282686,0.0067291446,-0.42229876
2535628834,42.622704,-6.132494,-23.66949,3.0201602,0.0,-4.9049096,0.79788923,0.08092573,0.0,0.0,0.0,0.0,0.0,0.0,-0.03567279,0.009444292,-0.4242205
2535733286,42.103554,-6.0691977,-23.671196,3.0201602,0.0,-4.907302,0.7921252,0.09419136,0.0,0.0,0.0,0.0,0.0,0.0,-0.025501158,0.005241458,-0.42086232
2535829184,41.62762,-6.0111613,-23.672703,3.0201602,0.0,-4.9075017,0.78325826,0.105579875,0.0,0.0,0.0,0.0,0.0,0.0,-0.0264435,0.0051354226,-0.42604122
2535933295,41.110863,-5.948154,-23.674316,3.0201602,0.0,-4.9132667,0.7789031,0.11437484,0.0,0.0,0.0,0.0,0.0,0.0,-0.020686712,0.0036401171,-0.42288637
2536038335,40.590176,-5.884679,-23.675863,3.0201602,0.0,-4.9177036,0.7739658,0.12232308,0.0,0.0,0.0,0.0,0.0,0.0,-0.027742337,0.0069925915,-0.43042076
2536134083,40.114323,-5.826642,-23.677229,3.0201602,0.0,-4.921364,0.77249277,0.12117411,0.0,0.0,0.0,0.0,0.0,0.0,-0.034225777,0.0078098467,-0.43473557
2536238160,39.597775,-5.7636456,-23.67869,3.0201602,0.0,-4.9267197,0.7650392,0.11600646,0.0,0.0,0.0,0.0,0.0,0.0,-0.030526707,0.005493027,-0.4325986
2536342088,39.08203,-5.700758,-23.680069,3.0201602,0.0,-4.932862,0.76160824,0.106955774,0.0,0.0,0.0,0.0,0.0,0.0,-0.033672355,0.00829148,-0.44155526
2536437961,38.606075,-5.642732,-23.681343,3.0201602,0.0,-4.939376,0.7580356,0.09188986,0.0,0.0,0.0,0.0,0.0,0.0,-0.032445583,0.0090700695,-0.4541097
2536542827,38.085594,-5.5792403,-23.682665,3.0201602,0.0,-4.9504275,0.758959,0.07386696,0.0,0.0,0.0,0.0,0.0,0.0,-0.045540873,0.010308952,-0.45634586
2536646926,37.56892,-5.5162263,-23.68395,3.0201602,0.0,-4.960792,0.7581493,0.060005855,0.0,0.0,0.0,0.0,0.0,0.0,-0.030265177,0.011913799,-0.44896486
2536742906,37.09256,-5.4581285,-23.685085,3.0201602,0.0,-4.968519,0.7577784,0.053021017,0.0,0.0,0.0,0.0,0.0,0.0,-0.035391267,0.010494972,-0.44173965
2536847674,36.57254,-5.3947124,-23.686317,3.0201602,0.0,-4.972874,0.75623035,0.050182443,0.0,0.0,0.0,0.0,0.0,0.0,-0.032430846,0.0108965095,-0.43523026
2536952044,36.055252,-5.3316154,-23.687468,3.0201602,0.0,-4.977097,0.75539774,0.047374275,0.0,0.0,0.0,0.0,0.0,0.0,-0.02989666,0.013160262,-0.43505716
2537047515,35.580692,-5.2737207,-23.688498,3.0201602,0.0,-4.9756594,0.7515338,0.043634906,0.0,0.0,0.0,0.0,0.0,0.0,-0.024994075,0.009521775,-0.44210473
2537151652,35.064045,-5.2107034,-23.689589,3.0201602,0.0,-4.976292,0.7506906,0.036663976,0.0,0.0,0.0,0.0,0.0,0.0,-0.028793994,0.007927914,-0.44308138
2537253333,34.561028,-5.149345,-23.690636,3.0201602,0.0,-4.976974,0.74524546,0.029651005,0.0,0.0,0.0,0.0,0.0,0.0,-0.033467088,0.010501941,-0.44550797
2537349947,34.081562,-5.090874,-23.691586,3.0201602,0.0,-4.980391,0.73922265,0.017864887,0.0,0.0,0.0,0.0,0.0,0.0,-0.029853735,0.010669178,-0.44960195
2537452407,33.576984,-5.029336,-23.692577,3.0201602,0.0,-4.9822054,0.7350125,0.0015246719,0.0,0.0,0.0,0.0,0.0,0.0,-0.03452105,0.012398488,-0.45791525
2537556456,33.06561,-4.9669514,-23.693558,3.0201602,0.0,-4.9831777,0.72987163,-0.011367384,0.0,0.0,0.0,0.0,0.0,0.0,-0.032187503,0.011815205,-0.45849785
2537661523,32.549183,-4.903937,-23.69446,3.0201602,0.0,-4.9867086,0.72479945,-0.021828858,0.0,0.0,0.0,0.0,0.0,0.0,-0.0391917,0.008320367,-0.4472622
2537757243,32.07827,-4.846502,-23.69529,3.0201602,0.0,-4.9854507,0.71839064,-0.024929712,0.0,0.0,0.0,0.0,0.0,0.0,-0.025404608,0.011490566,-0.44673616
2537861683,31.56497,-4.783913,-23.696203,3.0201602,0.0,-4.9896164,0.7125885,-0.02448601,0.0,0.0,0.0,0.0,0.0,0.0,-0.03234306,0.010817365,-0.44624466
2537965180,31.05856,-4.722138,-23.697056,3.0201602,0.0,-4.9872103,0.704959,-0.024687935,0.0,0.0,0.0,0.0,0.0,0.0,-0.040198732,0.009931662,-0.44952953
2538061986,30.587383,-4.664682,-23.69783,3.0201602,0.0,-4.9897614,0.7003536,-0.029275795,0.0,0.0,0.0,0.0,0.0,0.0,-0.02882995,0.012515267,-0.4513933
2538166448,30.080826,-4.60287,-23.698612,3.0201602,0.0,-4.9895535,0.6945619,-0.034326814,0.0,0.0,0.0,0.0,0.0,0.0,-0.028674975,0.008209063,-0.4460105
2538270423,29.572695,-4.540878,-23.699396,3.0201602,0.0,-4.992003,0.6876264,-0.036955487,0.0,0.0,0.0,0.0,0.0,0.0,-0.037578274,0.00921543,-0.44549078
2538366532,29.10508,-4.48385,-23.70009,3.0201602,0.0,-4.992278,0.6796556,-0.037527353,0.0,0.0,0.0,0.0,0.0,0.0,-0.030676888,0.009537455,-0.44436875
2538470759,28.594652,-4.421538,-23.700846,3.0201602,0.0,-4.992957,0.6695391,-0.038801324,0.0,0.0,0.0,0.0,0.0,0.0,-0.02676077,0.0048003583,-0.44757363
2538575008,28.084106,-4.3592625,-23.701553,3.0201602,0.0,-4.993403,0.65984905,-0.039396133,0.0,0.0,0.0,0.0,0.0,0.0,-0.029372413,0.0058981897,-0.44374835
2538670879,27.611889,-4.301631,-23.702173,3.0201602,0.0,-4.9952683,0.65184903,-0.042822033,0.0,0.0,0.0,0.0,0.0,0.0,-0.028677277,0.005801201,-0.4381745
2538774771,27.097815,-4.238942,-23.702868,3.0201602,0.0,-4.9951935,0.6407329,-0.04342311,0.0,0.0,0.0,0.0,0.0,0.0,-0.022326611,0.0049483296,-0.43515366
2538879634,26.577892,-4.1755047,-23.703514,3.0201602,0.0,-4.9960465,0.63044447,-0.043251917,0.0,0.0,0.0,0.0,0.0,0.0,-0.021881513,0.0055641974,-0.4381482
2538975931,26.100336,-4.1172485,-23.704092,3.0201602,0.0,-4.9981327,0.62213355,-0.045781936,0.0,0.0,0.0,0.0,0.0,0.0,-0.038508676,0.0041611968,-0.44371244
2539079610,25.586325,-4.0545506,-23.704733,3.0201602,0.0,-5.0021048,0.61483556,-0.051875506,0.0,0.0,0.0,0.0,0.0,0.0,-0.036956,0.004341348,-0.448604
2539180878,25.08616,-3.993523,-23.705278,3.0201602,0.0,-5.0041547,0.60971564,-0.056240708,0.0,0.0,0.0,0.0,0.0,0.0,-0.034474026,0.00454096,-0.44645736
2539284408,24.572634,-3.93088,-23.705862,3.0201602,0.0,-5.0046983,0.6033184,-0.049477983,0.0,0.0,0.0,0.0,0.0,0.0,-0.033460356,0.0053631514,-0.4449131
2539388412,24.059017,-3.868212,-23.706402,3.0201602,0.0,-5.0014653,0.5979749,-0.042249277,0.0,0.0,0.0,0.0,0.0,0.0,-0.03629891,0.010669847,-0.43838805
2539492913,23.541348,-3.8050735,-23.706968,3.0201602,0.0,-5.0021887,0.5936141,-0.03383164,0.0,0.0,0.0,0.0,0.0,0.0,-0.027819384,0.008839073,-0.43063098
2539589365,23.0619,-3.7465432,-23.707443,3.0201602,0.0,-4.9993987,0.5915658,-0.020811498,0.0,0.0,0.0,0.0,0.0,0.0,-0.027831193,0.0042318334,-0.4304658
2539693610,22.54512,-3.683507,-23.707962,3.0201602,0.0,-4.9999685,0.5895056,-0.011817154,0.0,0.0,0.0,0.0,0.0,0.0,-0.030473676,0.0043931277,-0.44108078
2539797274,22.029997,-3.6206567,-23.708435,3.0201602,0.0,-4.9992647,0.5870396,-0.0031651603,0.0,0.0,0.0,0.0,0.0,0.0,-0.024784949,0.0046263095,-0.43622494
2539893340,21.553198,-3.562484,-23.708868,3.0201602,0.0,-4.999537,0.5869818,0.007842662,0.0,0.0,0.0,0.0,0.0,0.0,-0.03729637,0.0134876715,-0.43379435
2539998016,21.03373,-3.4991102,-23.709324,3.0201602,0.0,-5.0000286,0.58689386,0.011348042,0.0,0.0,0.0,0.0,0.0,0.0,-0.03674934,0.0112773245,-0.44044203
2540102333,20.518011,-3.4361851,-23.709776,3.0201602,0.0,-5.004254,0.58564824,0.0064966017,0.0,0.0,0.0,0.0,0.0,0.0,-0.036582984,0.008647812,-0.44867307
2540206037,20.005875,-3.37371,-23.710226,3.0201602,0.0,-5.0030727,0.5842595,0.0050493423,0.0,0.0,0.0,0.0,0.0,0.0,-0.03280965,0.007816748,-0.43999565
2540302205,19.530739,-3.3157392,-23.710615,3.0201602,0.0,-5.003904,0.5834235,0.008561734,0.0,0.0,0.0,0.0,0.0,0.0,-0.037721854,0.012255306,-0.43653336
2540406720,19.013704,-3.2526512,-23.710995,3.0201602,0.0,-5.0028634,0.58044815,0.015654966,0.0,0.0,0.0,0.0,0.0,0.0,-0.037381183,0.014177447,-0.4317225
2540511269,18.496103,-3.1895046,-23.711403,3.0201602,0.0,-5.003542,0.57768005,0.01815095,0.0,0.0,0.0,0.0,0.0,0.0,-0.033218484,0.0113516785,-0.4337143
2540606979,18.020332,-3.131461,-23.711798,3.0201602,0.0,-5.0003505,0.575582,0.01562775,0.0,0.0,0.0,0.0,0.0,0.0,-0.039494973,0.0040236115,-0.44489816
2540710783,17.505123,-3.0685666,-23.71218,3.0201602,0.0,-4.9944525,0.5687718,0.0048148846,0.0,0.0,0.0,0.0,0.0,0.0,-0.036355667,0.005968893,-0.447006
2540815694,16.984432,-3.005032,-23.712553,3.0201602,0.0,-4.9885783,0.56391555,-0.009444299,0.0,0.0,0.0,0.0,0.0,0.0,-0.030037664,0.0066656405,-0.45212638
2540911701,16.508255,-2.9469337,-23.712906,3.0201602,0.0,-4.9724813,0.55690145,-0.025752699,0.0,0.0,0.0,0.0,0.0,0.0,-0.029673155,-0.00036086142,-0.45816165
2541015752,15.994875,-2.8844614,-23.713268,3.0201602,0.0,-4.9047313,0.5439564,-0.045943227,0.0,0.0,0.0,0.0,0.0,0.0,-0.02749196,0.0015389975,-0.45655733
2541116893,15.505547,-2.8248441,-23.713608,3.0201602,0.0,-4.7790375,0.5257323,-0.059836607,0.0,0.0,0.0,0.0,0.0,0.0,-0.014718799,0.0027732342,-0.44916588
2541221268,15.011804,-2.7642243,-23.713926,3.0201602,0.0,-4.6014957,0.506749,-0.0655042,0.0,0.0,0.0,0.0,0.0,0.0,-0.0018619373,0.003463461,-0.44778433
2541316573,14.5759945,-2.7103002,-23.71421,3.0201602,0.0,-4.4223804,0.48217058,-0.06842084,0.0,0.0,0.0,0.0,0.0,0.0,0.0120250005,-0.008836273,-0.44199133
2541420369,14.115614,-2.653074,-23.7145,3.0201602,0.0,-4.222784,0.45419538,-0.06794017,0.0,0.0,0.0,0.0,0.0,0.0,0.02450122,-0.0076092947,-0.4379518
2541524830,13.66831,-2.5972385,-23.71479,3.0201602,0.0,-4.018358,0.42502975,-0.065658204,0.0,0.0,0.0,0.0,0.0,0.0,0.03124856,-0.0051328484,-0.43676257
2541621964,13.264468,-2.5466433,-23.715054,3.0201602,0.0,-3.8319232,0.40044692,-0.06519568,0.0,0.0,0.0,0.0,0.0,0.0,0.036432568,-0.0019466598,-0.4454187
2541725487,12.84873,-2.4944947,-23.71532,3.0201602,0.0,-3.633922,0.3720521,-0.064750664,0.0,0.0,0.0,0.0,0.0,0.0,0.047192853,-0.0075673778,-0.44744405
2541829284,12.445317,-2.4441822,-23.71559,3.0201602,0.0,-3.441406,0.3437277,-0.059144467,0.0,0.0,0.0,0.0,0.0,0.0,0.05440879,-0.010771602,-0.45143983
2541925342,12.084132,-2.3994732,-23.715822,3.0201602,0.0,-3.2653048,0.31711978,-0.05738143,0.0,0.0,0.0,0.0,0.0,0.0,0.047062945,-0.0035781497,-0.448504
2542030098,11.703002,-2.3527231,-23.716095,3.0201602,0.0,-3.0799582,0.2901392,-0.055588335,0.0,0.0,0.0,0.0,0.0,0.0,0.066054225,-0.008802842,-0.44498503
2542134594,11.336217,-2.3082495,-23.716337,3.0201602,0.0,-2.899804,0.26485124,-0.04684679,0.0,0.0,0.0,0.0,0.0,0.0,0.07173839,-0.010808156,-0.43551308
2542230548,11.009395,-2.2691402,-23.716545,3.0201602,0.0,-2.7418542,0.24240848,-0.047858283,0.0,0.0,0.0,0.0,0.0,0.0,0.06358147,-0.012371205,-0.44378155
2542334760,10.665587,-2.228626,-23.71677,3.0201602,0.0,-2.5756712,0.2191278,-0.055609502,0.0,0.0,0.0,0.0,0.0,0.0,0.07144216,-0.0070906864,-0.44778705
2542439296,10.333115,-2.1895196,-23.716997,3.0201602,0.0,-2.420064,0.21300365,-0.06701492,0.0,0.0,0.0,0.0,0.0,0.0,0.07312352,-0.009829957,-0.46258676
2542534775,10.038268,-2.1541295,-23.717207,3.0201602,0.0,-2.2853374,0.20936495,-0.08320163,0.0,0.0,0.0,0.0,0.0,0.0,0.06199295,-0.008063396,-0.4730274
2542640041,9.724501,-2.1159565,-23.717379,3.0201602,0.0,-2.1528504,0.2066362,-0.10427466,0.0,0.0,0.0,0.0,0.0,0.0,0.068730384,-0.0072457762,-0.4798785
2542743567,9.425241,-2.0793583,-23.71758,3.0201602,0.0,-2.023909,0.20454091,-0.13714929,0.0,0.0,0.0,0.0,0.0,0.0,0.06605847,-0.0075004343,-0.48336303
2542839672,9.156547,-2.046459,-23.717737,3.0201602,0.0,-1.9128042,0.20553048,-0.16991961,0.0,0.0,0.0,0.0,0.0,0.0,0.06959362,-0.0047601517,-0.48197344
2542943626,8.875083,-2.0119944,-23.717949,3.0201602,0.0,-1.7986437,0.2097612,-0.20799021,0.0,0.0,0.0,0.0,0.0,0.0,0.064810224,-0.0020282825,-0.48499686
2543048728,8.600078,-1.9783529,-23.71811,3.0201602,0.0,-1.6952491,0.21461469,-0.23868257,0.0,0.0,0.0,0.0,0.0,0.0,0.072228976,-0.005868634,-0.48086345
2543150831,8.341267,-1.9467647,-23.71825,3.0201602,0.0,-1.5932534,0.22051112,-0.2701252,0.0,0.0,0.0,0.0,0.0,0.0,0.069659784,-0.0011852162,-0.4800099
2543248410,8.101829,-1.9176444,-23.718424,3.0201602,0.0,-1.5051421,0.22764876,-0.2939509,0.0,0.0,0.0,0.0,0.0,0.0,0.074225865,-0.003078235,-0.47823337
2543352454,7.8546205,-1.8877275,-23.718578,3.0201602,0.0,-1.4161294,0.23675941,-0.31289467,0.0,0.0,0.0,0.0,0.0,0.0,0.07681242,-0.0018109416,-0.47765017
2543457718,7.612906,-1.8586675,-23.718733,3.0201602,0.0,-1.3348227,0.24463764,-0.33279794,0.0,0.0,0.0,0.0,0.0,0.0,0.070845865,0.0013820552,-0.48558956
2543553303,7.399725,-1.8332528,-23.718876,3.0201602,0.0,-1.2611468,0.25357983,-0.34960887,0.0,0.0,0.0,0.0,0.0,0.0,0.071759075,0.0045216028,-0.4781142
2543658429,7.1731834,-1.8061135,-23.719076,3.0201602,0.0,-1.1905962,0.27335328,-0.35277328,0.0,0.0,0.0,0.0,0.0,0.0,0.06089277,0.0043279883,-0.4641043
2543761357,6.957987,-1.7799118,-23.719242,3.0201602,0.0,-1.1286129,0.29310185,-0.3458531,0.0,0.0,0.0,0.0,0.0,0.0,0.064938545,0.011392168,-0.45866346
2543857677,6.7634363,-1.7561281,-23.719389,3.0201602,0.0,-1.0792769,0.30930802,-0.33704704,0.0,0.0,0.0,0.0,0.0,0.0,0.05588641,0.016732603,-0.45696867
2543962003,6.55842,-1.7311275,-23.719532,3.0201602,0.0,-1.0322497,0.32604855,-0.3279923,0.0,0.0,0.0,0.0,0.0,0.0,0.06531399,0.011069342,-0.4666801
2544067229,6.3589735,-1.7068948,-23.71968,3.0201602,0.0,-0.9895767,0.34164745,-0.32233793,0.0,0.0,0.0,0.0,0.0,0.0,0.048004877,0.014265655,-0.4773301
2544163157,6.1824665,-1.6855475,-23.71979,3.0201602,0.0,-0.95544374,0.3538872,-0.31440932,0.0,0.0,0.0,0.0,0.0,0.0,0.045054752,0.015943045,-0.4731006
2544266324,5.9986796,-1.663458,-23.719933,0.046640433,0.0,-0.9236863,0.36637104,-0.29754493,0.0,0.0,0.0,0.0,0.0,0.0,0.058738332,0.017919993,-0.46372268
2544370866,5.8180213,-1.6433914,-23.719067,0.046640433,0.0,-0.8949412,0.33931693,-0.23383583,0.0,0.0,0.0,0.0,0.0,0.0,0.052865997,0.0098610595,-0.3991482
2544466806,5.657525,-1.6303502,-23.713161,0.046640433,0.0,-0.8732547,0.29717773,-0.10621411,0.0,0.0,0.0,0.0,0.0,0.0,0.043684363,0.004202771,-0.36537397
2544572186,5.485878,-1.619221,-23.695675,0.046640433,0.0,-0.8638217,0.2917905,0.09203605,0.0,0.0,0.0,0.0,0.0,0.0,0.045835793,0.0006688661,-0.35643148
2544674918,5.3227844,-1.6074762,-23.661997,0.046640433,0.0,-0.8368055,0.3094039,0.34118766,0.0,0.0,0.0,0.0,0.0,0.0,0.039797038,0.0014654233,-0.3510605
2544775623,5.1682806,-1.5952052,-23.607908,0.046640433,0.0,-0.81387806,0.3088963,0.6374753,0.0,0.0,0.0,0.0,0.0,0.0,0.04042633,-2.3986679e-05,-0.32390195
2544880981,5.0119343,-1.582517,-23.523397,0.046640433,0.0,-0.7843427,0.3088211,1.0058149,0.0,0.0,0.0,0.0,0.0,0.0,0.043871857,-0.0063226838,-0.2799269
2544983658,4.8642797,-1.5700773,-23.407883,0.046640433,0.0,-0.7558805,0.30229887,1.4259052,0.0,0.0,0.0,0.0,0.0,0.0,0.044961795,-0.009818145,-0.24044847
2545080346,4.729643,-1.5583583,-23.264488,0.046640433,0.0,-0.72883797,0.29222012,1.8732283,0.0,0.0,0.0,0.0,0.0,0.0,0.043425895,-0.011272961,-0.1976428
2545184353,4.5892577,-1.5457615,-23.069843,0.046640433,0.0,-0.7033696,0.27620852,2.0,0.0,0.0,0.0,0.0,0.0,0.0,0.036102403,-0.009095527,-0.2718364
2545288736,4.4530997,-1.5331653,-22.860834,0.046640433,0.0,-0.67915326,0.25709796,2.0,0.0,0.0,0.0,0.0,0.0,0.0,0.038637944,-0.012944633,-0.36977983
2545384411,4.3318048,-1.5216235,-22.66874,0.046640433,0.0,-0.660695,0.2355293,2.0,0.0,0.0,0.0,0.0,0.0,0.0,0.034032557,-0.013240656,-0.41665637
2545486720,4.206211,-1.5093641,-22.463621,0.046640433,0.0,-0.638747,0.21324268,2.0,0.0,0.0,0.0,0.0,0.0,0.0,0.02941406,-0.024676677,-0.4283654
2545589352,4.0842533,-1.4971346,-22.257895,0.046640433,0.0,-0.61760587,0.18296945,2.0,0.0,0.0,0.0,0.0,0.0,0.0,0.036092572,-0.027325857,-0.43897328
2545694808,3.9628935,-1.4847125,-22.04648,0.046640433,0.0,-0.596767,0.15057833,2.0,0.0,0.0,0.0,0.0,0.0,0.0,0.034203324,-0.033657935,-0.4490578
2545790515,3.856297,-1.4735628,-21.854923,0.046640433,0.0,-0.57770145,0.116897464,2.0,0.0,0.0,0.0,0.0,0.0,0.0,0.039856102,-0.036527146,-0.45141828
2545893997,3.7442958,-1.4615973,-21.64724,0.046640433,0.0,-0.5623265,0.075832576,2.0,0.0,0.0,0.0,0.0,0.0,0.0,0.035080574,-0.046216384,-0.44420293
2545998013,3.635414,-1.4497185,-21.438772,0.046640433,0.0,-0.5533287,0.030566394,2.0,0.0,0.0,0.0,0.0,0.0,0.0,0.03740091,-0.047719054,-0.44820076
2546094022,3.5379443,-1.4388906,-21.246365,0.046640433,0.0,-0.5486776,-0.010415554,2.0,0.0,0.0,0.0,0.0,0.0,0.0,0.028279832,-0.052991457,-0.4482378
2546199102,3.434651,-1.4271895,-21.035944,0.046640433,0.0,-0.5475079,-0.055851735,2.0,0.0,0.0,0.0,0.0,0.0,0.0,0.028222218,-0.05247235,-0.43845388
2546302945,3.3357177,-1.4157522,-20.827833,0.046640433,0.0,-0.5482731,-0.09419174,2.0,0.0,0.0,0.0,0.0,0.0,0.0,0.040167987,-0.05540549,-0.4303444
2546398812,3.2471466,-1.4053668,-20.635626,0.046640433,0.0,-0.5477978,-0.12809558,2.0,0.0,0.0,0.0,0.0,0.0,0.0,0.03266651,-0.05551135,-0.41241467
2546502788,3.154054,-1.3943007,-20.427315,0.046640433,0.0,-0.54669297,-0.15790169,2.0,0.0,0.0,0.0,0.0,0.0,0.0,0.03367563,-0.055439338,-0.39421815
2546608286,3.0626035,-1.3832392,-20.215977,0.046640433,0.0,-0.5450833,-0.18837291,2.0,0.0,0.0,0.0,0.0,0.0,0.0,0.036123015,-0.061584763,-0.3847148
2546704728,2.98165,-1.3732868,-20.022945,0.046640433,0.0,-0.541501,-0.21652809,2.0,0.0,0.0,0.0,0.0,0.0,0.0,0.03304427,-0.057342336,-0.39152542
2546807660,2.8976922,-1.3628161,-19.816618,0.046640433,0.0,-0.53821826,-0.24568243,2.0,0.0,0.0,0.0,0.0,0.0,0.0,0.037778635,-0.057011634,-0.3989765
2546911757,2.8155704,-1.3525033,-19.608217,0.046640433,0.0,-0.5333914,-0.26392373,2.0,0.0,0.0,0.0,0.0,0.0,0.0,0.03582508,-0.05501078,-0.41025227
2547008390,2.7416146,-1.3430996,-19.414625,0.046640433,0.0,-0.52965707,-0.2783123,2.0,0.0,0.0,0.0,0.0,0.0,0.0,0.037894182,-0.05240896,-0.4120693
2547113805,2.6634958,-1.3330508,-19.203709,0.046640433,0.0,-0.52503157,-0.2875979,2.0,0.0,0.0,0.0,0.0,0.0,0.0,0.026301133,-0.04981354,-0.4077951
2547216544,2.5896487,-1.3234367,-18.997889,0.046640433,0.0,-0.52156377,-0.29562742,2.0,0.0,0.0,0.0,0.0,0.0,0.0,0.026472865,-0.05038033,-0.40428007
2547313648,2.522109,-1.3145461,-18.80378,0.046640433,0.0,-0.5242023,-0.30179545,2.0,0.0,0.0,0.0,0.0,0.0,0.0,0.024298597,-0.047212377,-0.41137797
2547417214,2.4520745,-1.3052146,-18.596222,0.046640433,0.0,-0.5307747,-0.30678862,2.0,0.0,0.0,0.0,0.0,0.0,0.0,0.017685395,-0.047944486,-0.42170566
2547521320,2.3839767,-1.2960471,-18.38792,0.046640433,0.0,-0.53967047,-0.3077233,2.0,0.0,0.0,0.0,0.0,0.0,0.0,0.015848486,-0.042819858,-0.4339355
2547617187,2.32316,-1.2877942,-18.196175,0.046640433,0.0,-0.5505303,-0.30563837,2.0,0.0,0.0,0.0,0.0,0.0,0.0,0.014416284,-0.041356653,-0.4459148
2547721234,2.2591462,-1.2790315,-17.989689,0.046640433,0.0,-0.56510836,-0.2932337,2.0,0.0,0.0,0.0,0.0,0.0,0.0,0.00046155788,-0.03353317,-0.44367766
2547823149,2.1984303,-1.2706364,-17.793873,0.046640433,0.0,-0.58274215,-0.27699745,2.0,0.0,0.0,0.0,0.0,0.0,0.0,0.007379506,-0.025030272,-0.447967
2547925953,2.138956,-1.2623338,-17.604027,0.046640433,0.0,-0.59864527,-0.25415584,2.0,0.0,0.0,0.0,0.0,0.0,0.0,0.005620487,-0.027768984,-0.43836764
2548021998,2.0888212,-1.2552882,-17.444773,0.046640433,0.0,-0.6096928,-0.23370557,2.0,0.0,0.0,0.0,0.0,0.0,0.0,-0.012357721,-0.026830286,-0.43169186
2548126031,2.0412023,-1.2485476,-17.293898,0.046640433,0.0,-0.61573184,-0.21264142,2.0,0.0,0.0,0.0,0.0,0.0,0.0,-0.014561111,-0.027866539,-0.42594913
2548232056,1.9935728,-1.2417598,-17.143274,0.046640433,0.0,-0.62150073,-0.19450393,2.0,0.0,0.0,0.0,0.0,0.0,0.0,-0.0006841719,-0.023337761,-0.43375456
2548328072,1.9512049,-1.2356833,-17.009428,0.046640433,0.0,-0.6269359,-0.17945755,2.0,0.0,0.0,0.0,0.0,0.0,0.0,-0.017250175,-0.014925992,-0.45132607
2548430770,1.9067992,-1.2292664,-16.869217,0.046640433,0.0,-0.6355127,-0.16196033,2.0,0.0,0.0,0.0,0.0,0.0,0.0,-0.00945274,-0.014520401,-0.4601056
2548534924,1.8628944,-1.2228712,-16.730686,0.046640433,0.0,-0.641893,-0.14742374,1.900772,0.0,0.0,0.0,0.0,0.0,0.0,-0.0031962711,-0.024360256,-0.48323235
2548636886,1.8210821,-1.2167382,-16.598818,0.046640433,0.0,-0.64318395,-0.1375972,1.7693263,0.0,0.0,0.0,0.0,0.0,0.0,-0.0005986355,-0.024753846,-0.49947393
2548739806,1.7798601,-1.2106874,-16.468927,0.046640433,0.0,-0.6375475,-0.13086732,1.639298,0.0,0.0,0.0,0.0,0.0,0.0,-0.002353061,-0.02860783,-0.50634736
2548835558,1.7424864,-1.2051694,-16.351225,0.046640433,0.0,-0.6298773,-0.12720245,1.5298359,0.0,0.0,0.0,0.0,0.0,0.0,-0.0015880093,-0.0303146,-0.51272845
2548940982,1.7023915,-1.1992105,-16.225027,0.046640433,0.0,-0.6184244,-0.12578732,1.4235884,0.0,0.0,0.0,0.0,0.0,0.0,0.0054726396,-0.030003026,-0.50152594
2549044386,1.6640836,-1.1934835,-16.104488,0.046640433,0.0,-0.604605,-0.12800007,1.3326255,0.0,0.0,0.0,0.0,0.0,0.0,0.0026256498,-0.03231122,-0.4893381
2549140500,1.6294265,-1.1882745,-15.995432,0.046640433,0.0,-0.59240454,-0.13362437,1.2749225,0.0,0.0,0.0,0.0,0.0,0.0,0.0038047014,-0.035603106,-0.4723046
2549244544,1.5929455,-1.1827637,-15.880641,0.046640433,0.0,-0.5776154,-0.14061353,1.2265346,0.0,0.0,0.0,0.0,0.0,0.0,0.006633891,-0.04001959,-0.4683984
2549349535,1.5571737,-1.1773372,-15.76816,0.046640433,0.0,-0.55936086,-0.15018627,1.1802952,0.0,0.0,0.0,0.0,0.0,0.0,0.0057686307,-0.04392807,-0.46694952
2549453256,1.5227581,-1.1720989,-15.66004,0.046640433,0.0,-0.5385485,-0.16077326,1.1323363,0.0,0.0,0.0,0.0,0.0,0.0,0.0061251502,-0.041414164,-0.4628743
2549549334,1.4917549,-1.1673623,-15.562602,0.046640433,0.0,-0.51924324,-0.17055202,1.0923635,0.0,0.0,0.0,0.0,0.0,0.0,0.002946212,-0.04596005,-0.4615019
2549653241,1.4591304,-1.1623648,-15.4600525,0.046640433,0.0,-0.4971717,-0.18054353,1.0499274,0.0,0.0,0.0,0.0,0.0,0.0,0.008502216,-0.04886775,-0.4637515
2549757242,1.4273543,-1.1574721,-15.360204,0.046640433,0.0,-0.47476098,-0.18902093,1.0057997,0.0,0.0,0.0,0.0,0.0,0.0,0.00502728,-0.047205605,-0.47541827
2549854023,1.3985411,-1.1530211,-15.269744,0.046640433,0.0,-0.45230514,-0.19655722,0.965242,0.0,0.0,0.0,0.0,0.0,0.0,0.016524963,-0.042570863,-0.4741019
2549958109,1.3683581,-1.1483405,-15.175024,0.046640433,0.0,-0.42682594,-0.20427193,0.92507577,0.0,0.0,0.0,0.0,0.0,0.0,0.009213821,-0.048100255,-0.46795517
2550062112,1.3389733,-1.1437659,-15.08286,0.046640433,0.0,-0.40030602,-0.20582613,0.8826815,0.0,0.0,0.0,0.0,0.0,0.0,0.017428447,-0.041044936,-0.47927627
2550158096,1.3124369,-1.1396174,-14.999618,0.046640433,0.0,-0.3773964,-0.20208031,0.84283817,0.0,0.0,0.0,0.0,0.0,0.0,0.015074206,-0.038952086,-0.47585374
2550264190,1.2837272,-1.1351151,-14.909558,0.046640433,0.0,-0.35444835,-0.19585896,0.7953873,0.0,0.0,0.0,0.0,0.0,0.0,0.008503053,-0.036694635,-0.4855891
2550366878,1.2540437,-1.13045,-14.81647,0.046640433,0.0,-0.3335452,-0.1868462,0.75121164,0.0,0.0,0.0,0.0,0.0,0.0,0.007514246,-0.036476374,-0.49454993
2550462805,1.2257372,-1.1259488,-14.727774,0.046640433,0.0,-0.31536084,-0.1745696,0.71724963,0.0,0.0,0.0,0.0,0.0,0.0,0.01536243,-0.03467865,-0.49254185
2550567996,1.1956825,-1.1211898,-14.633557,0.046640433,0.0,-0.2954088,-0.15874237,0.6801694,0.0,0.0,0.0,0.0,0.0,0.0,0.021042611,-0.03133141,-0.4888245
2550672992,1.1665628,-1.1165525,-14.5423975,0.046640433,0.0,-0.27364838,-0.13719973,0.6467325,0.0,0.0,0.0,0.0,0.0,0.0,0.015489202,-0.030453369,-0.48772767
2550777071,1.138605,-1.1120646,-14.454834,0.046640433,0.0,-0.25278693,-0.113947235,0.6271869,0.0,0.0,0.0,0.0,0.0,0.0,0.01672788,-0.026790172,-0.47708893
2550871562,1.1140153,-1.1081523,-14.377758,0.046640433,0.0,-0.23471692,-0.09158911,0.6129288,0.0,0.0,0.0,0.0,0.0,0.0,0.023624422,-0.026911777,-0.47149414
2550977687,1.0872289,-1.1038561,-14.29392,0.046640433,0.0,-0.2166571,-0.06652727,0.6068814,0.0,0.0,0.0,0.0,0.0,0.0,0.016415788,-0.025360439,-0.46717027
2551080442,1.0619954,-1.0997952,-14.215069,0.046640433,0.0,-0.19850694,-0.041299567,0.59831715,0.0,0.0,0.0,0.0,0.0,0.0,0.020442422,-0.02191883,-0.46243706
2551176384,1.0391955,-1.0961093,-14.143732,0.046640433,0.0,-0.18347004,-0.01984509,0.5853744,0.0,0.0,0.0,0.0,0.0,0.0,0.019540647,-0.019231074,-0.4677204
2551280552,1.0151862,-1.0922232,-14.06864,0.046640433,0.0,-0.17009376,0.002978187,0.5651287,0.0,0.0,0.0,0.0,0.0,0.0,0.017605579,-0.019504583,-0.47722477
2551385384,0.9917531,-1.0884126,-13.9954405,0.046640433,0.0,-0.15991154,0.022322187,0.5414127,0.0,0.0,0.0,0.0,0.0,0.0,0.013629385,-0.016044885,-0.47491738
2551481244,0.9709973,-1.0850701,-13.930511,0.046640433,0.0,-0.15006363,0.040955298,0.5218171,0.0,0.0,0.0,0.0,0.0,0.0,0.01736773,-0.020018725,-0.47566295
2551585333,0.9491214,-1.0815014,-13.862097,0.046640433,0.0,-0.14068775,0.058342576,0.503674,0.0,0.0,0.0,0.0,0.0,0.0,0.017067133,-0.015409078,-0.46930766
2551689431,0.9279079,-1.0780116,-13.795815,0.046640433,0.0,-0.13065588,0.07486229,0.48420626,0.0,0.0,0.0,0.0,0.0,0.0,0.01306888,-0.015929524,-0.47193977
2551786131,0.9087925,-1.0748572,-13.736087,0.046640433,0.0,-0.120834984,0.084998146,0.4718181,0.0,0.0,0.0,0.0,0.0,0.0,0.017851714,-0.012109751,-0.46455976
2551890166,0.888826,-1.0715606,-13.673794,0.046640433,0.0,-0.1049047,0.101670705,0.4612043,0.0,0.0,0.0,0.0,0.0,0.0,0.017795112,-0.01841768,-0.4533246
2551994092,0.86952883,-1.0683726,-13.613493,0.046640433,0.0,-0.091863744,0.11157854,0.4528454,0.0,0.0,0.0,0.0,0.0,0.0,0.02236756,-0.019402634,-0.45270112
2552090025,0.85225147,-1.065525,-13.5595,0.046640433,0.0,-0.07681504,0.12389392,0.43950373,0.0,0.0,0.0,0.0,0.0,0.0,0.020467812,-0.014140919,-0.4594488
2552195260,0.83388144,-1.0624695,-13.50216,0.046640433,0.0,-0.06274056,0.13253327,0.4233185,0.0,0.0,0.0,0.0,0.0,0.0,0.026381742,-0.0235998,-0.45968422
2552298968,0.8162555,-1.0595319,-13.447197,0.046640433,0.0,-0.047662705,0.13809264,0.4017225,0.0,0.0,0.0,0.0,0.0,0.0,0.02362049,-0.01742416,-0.46305394
2552394808,0.8004797,-1.0569144,-13.397987,0.046640433,0.0,-0.03572844,0.14089867,0.3816676,0.0,0.0,0.0,0.0,0.0,0.0,0.01991564,-0.023325272,-0.46042848
2552498801,0.7838881,-1.0541534,-13.34619,0.046640433,0.0,-0.02876544,0.14185281,0.3574947,0.0,0.0,0.0,0.0,0.0,0.0,0.027884062,-0.022686215,-0.46889943
2552604215,0.76764005,-1.0514302,-13.295411,0.046640433,0.0,-0.024992287,0.14137252,0.3310753,0.0,0.0,0.0,0.0,0.0,0.0,0.012624064,-0.018674085,-0.47958252
2552707561,0.7521268,-1.0488343,-13.247054,0.046640433,0.0,-0.027639747,0.13707885,0.31656963,0.0,0.0,0.0,0.0,0.0,0.0,0.022260495,-0.025477253,-0.46070474
2552803932,0.73810613,-1.046511,-13.203407,0.046640433,0.0,-0.031973436,0.1325303,0.313392,0.0,0.0,0.0,0.0,0.0,0.0,0.019349605,-0.026456697,-0.4451497
2552908380,0.7233433,-1.0440222,-13.157453,0.046640433,0.0,-0.036878712,0.13404307,0.3073118,0.0,0.0,0.0,0.0,0.0,0.0,0.014129385,-0.023263162,-0.45295587
2553012372,0.70914084,-1.041635,-13.113161,0.046640433,0.0,-0.04062757,0.13195713,0.29049474,0.0,0.0,0.0,0.0,0.0,0.0,0.028945297,-0.028065678,-0.46277624
2553108434,0.6964232,-1.0394882,-13.073462,0.046640433,0.0,-0.038663737,0.13886344,0.26998478,0.0,0.0,0.0,0.0,0.0,0.0,0.019118879,-0.024927722,-0.47086865
2553212454,0.6830371,-1.0372322,-13.031758,0.046640433,0.0,-0.039304793,0.13956049,0.25757647,0.0,0.0,0.0,0.0,0.0,0.0,0.017743,-0.023531511,-0.45622623
2553313621,0.67045486,-1.0350914,-12.992501,0.046640433,0.0,-0.04205464,0.1388374,0.25337708,0.0,0.0,0.0,0.0,0.0,0.0,0.023735546,-0.024478385,-0.4547078
2553418272,0.6577763,-1.0329707,-12.953036,0.046640433,0.0,-0.045019194,0.13461319,0.24788019,0.0,0.0,0.0,0.0,0.0,0.0,0.020442866,-0.0267009,-0.4529677
2553521314,0.64568245,-1.0309302,-12.915392,0.046640433,0.0,-0.052619886,0.13389052,0.24399588,0.0,0.0,0.0,0.0,0.0,0.0,0.009299935,-0.023605704,-0.45793426
2553625373,0.63386244,-1.0289136,-12.87858,0.046640433,0.0,-0.062168505,0.13000005,0.24079877,0.0,0.0,0.0,0.0,0.0,0.0,0.01891401,-0.025323883,-0.46001744
2553722191,0.62320554,-1.0271268,-12.84532,0.046640433,0.0,-0.07274851,0.13192892,0.23734036,0.0,0.0,0.0,0.0,0.0,0.0,0.014969386,-0.023940967,-0.45647556
2553826891,0.61091995,-1.0267256,-12.808717,0.046640433,0.0,-0.10213917,0.1014144,0.27827334,0.0,0.0,0.0,0.0,0.0,0.0,0.0024562646,-0.028257305,-0.44017708
2553930413,0.5980632,-1.0284716,-12.766829,0.046640433,0.0,-0.10980273,0.1007001,0.3796479,0.0,0.0,0.0,0.0,0.0,0.0,0.01206913,-0.02276593,-0.41281572
2554026155,0.586975,-1.0293512,-12.717967,0.046640433,0.0,-0.112730525,0.10197119,0.52802277,0.0,0.0,0.0,0.0,0.0,0.0,0.01053494,-0.027926207,-0.3835515
2554130762,0.5754112,-1.0301045,-12.648803,0.046640433,0.0,-0.11626939,0.108794466,0.7511889,0.0,0.0,0.0,0.0,0.0,0.0,0.009443214,-0.024472693,-0.3469626
2554235518,0.56488883,-1.0306259,-12.563179,0.046640433,0.0,-0.12072755,0.11221863,1.0181695,0.0,0.0,0.0,0.0,0.0,0.0,0.016139738,-0.024174893,-0.31515706
2554338773,0.55491793,-1.0309917,-12.454887,0.046640433,0.0,-0.1242442,0.116775766,1.3272301,0.0,0.0,0.0,0.0,0.0,0.0,0.0092031965,-0.019589745,-0.2862267
2554434963,0.54599017,-1.031206,-12.331596,0.046640433,0.0,-0.12703256,0.11829188,1.5982797,0.0,0.0,0.0,0.0,0.0,0.0,0.012677033,-0.021494148,-0.27564287
2554536041,0.53694516,-1.0313113,-12.182785,0.046640433,0.0,-0.13071203,0.12301734,1.8298016,0.0,0.0,0.0,0.0,0.0,0.0,0.013335711,-0.017398821,-0.28344312
2554639693,0.52802414,-1.031302,-12.013483,0.046640433,0.0,-0.13330115,0.12933609,2.0,0.0,0.0,0.0,0.0,0.0,0.0,0.011955486,-0.0164955,-0.3106327
2554743934,0.51940715,-1.0311666,-11.8321905,0.046640433,0.0,-0.1376602,0.13937396,2.0,0.0,0.0,0.0,0.0,0.0,0.0,0.012515496,-0.017729694,-0.37577748
2554840379,0.51175743,-1.0309844,-11.658024,0.046640433,0.0,-0.13822706,0.14810851,2.0,0.0,0.0,0.0,0.0,0.0,0.0,0.02024858,-0.012203283,-0.42220828
2554944544,0.50381404,-1.0306795,-11.467526,0.046640433,0.0,-0.13515024,0.15646566,2.0,0.0,0.0,0.0,0.0,0.0,0.0,0.025621839,-0.01430959,-0.43809968
2555048490,0.4961814,-1.0303111,-11.277599,0.046640433,0.0,-0.12304583,0.1656287,2.0,0.0,0.0,0.0,0.0,0.0,0.0,0.028646832,-0.017334227,-0.4442982
2555144500,0.48939008,-1.0298997,-11.102776,0.046640433,0.0,-0.108423054,0.17404151,2.0,0.0,0.0,0.0,0.0,0.0,0.0,0.028901448,-0.01344568,-0.45066318
2555248369,0.48230237,-1.0293778,-10.914007,0.046640433,0.0,-0.089694984,0.18060051,2.0,0.0,0.0,0.0,0.0,0.0,0.0,0.02966954,-0.014125674,-0.45184344
2555353299,0.4753968,-1.0288302,-10.723722,0.046640433,0.0,-0.072657526,0.1833389,1.9675627,0.0,0.0,0.0,0.0,0.0,0.0,0.027041033,-0.018297452,-0.4522378
2555449349,0.46927655,-1.0282482,-10.549668,0.046640433,0.0,-0.058688987,0.18480238,1.9232054,0.0,0.0,0.0,0.0,0.0,0.0,0.014783094,-0.016083831,-0.46825093
2555553243,0.46283257,-1.0275853,-10.359859,0.046640433,0.0,-0.050050095,0.18345912,1.8801386,0.0,0.0,0.0,0.0,0.0,0.0,0.018419826,-0.014839016,-0.4728196
2555657954,0.45636556,-1.026851,-10.162297,0.046640433,0.0,-0.04571642,0.18412901,1.8534708,0.0,0.0,0.0,0.0,0.0,0.0,0.010345085,-0.019350883,-0.46710804
2555754481,0.4508163,-1.0261488,-9.987604,0.046640433,0.0,-0.04594336,0.18522455,1.827538,0.0,0.0,0.0,0.0,0.0,0.0,0.019224197,-0.011298065,-0.4642241
2555858169,0.44502768,-1.0253787,-9.799465,0.046640433,0.0,-0.044202242,0.18712243,1.8078535,0.0,0.0,0.0,0.0,0.0,0.0,0.008815205,-0.012321336,-0.4586256
2555962217,0.43943277,-1.0245605,-9.611035,0.046640433,0.0,-0.044422697,0.18833363,1.7990042,0.0,0.0,0.0,0.0,0.0,0.0,0.013879289,-0.011541194,-0.45000166
2556058734,0.43441293,-1.0237918,-9.436356,0.046640433,0.0,-0.042509444,0.18904889,1.8004816,0.0,0.0,0.0,0.0,0.0,0.0,0.01937986,-0.014581347,-0.44089097
2556163354,0.42916143,-1.0229453,-9.247358,0.046640433,0.0,-0.04093194,0.18866272,1.8069496,0.0,0.0,0.0,0.0,0.0,0.0,0.021474713,-0.012481024,-0.44046724
2556266929,0.4241093,-1.0220588,-9.059419,0.046640433,0.0,-0.03783782,0.18775767,1.810313,0.0,0.0,0.0,0.0,0.0,0.0,0.013157552,-0.015761614,-0.43647155
2556362874,0.41957125,-1.0212504,-8.885496,0.046640433,0.0,-0.035215683,0.1851914,1.81027,0.0,0.0,0.0,0.0,0.0,0.0,0.014446935,-0.016759362,-0.44082788
2556471775,0.4145765,-1.0202937,-8.687774,0.046640433,0.0,-0.033552658,0.182191,1.812439,0.0,0.0,0.0,0.0,0.0,0.0,0.00843115,-0.018091789,-0.44291243
2556575558,0.40994117,-1.0193802,-8.498772,0.046640433,0.0,-0.034401983,0.17608356,1.8177707,0.0,0.0,0.0,0.0,0.0,0.0,0.010540801,-0.024906717,-0.44808927
2556671598,0.40578145,-1.018528,-8.322992,0.046640433,0.0,-0.036338687,0.166609,1.8218052,0.0,0.0,0.0,0.0,0.0,0.0,0.011038061,-0.02535218,-0.44203597
2556776104,0.4013849,-1.0175782,-8.13084,0.046640433,0.0,-0.042776704,0.15290022,1.8266141,0.0,0.0,0.0,0.0,0.0,0.0,-0.0011751093,-0.025894918,-0.44258332
2556880615,0.39709094,-1.0166091,-7.9363894,0.046640433,0.0,-0.04666103,0.13836831,1.8409061,0.0,0.0,0.0,0.0,0.0,0.0,0.009525321,-0.029027192,-0.43365726
2556976562,0.3932501,-1.0157071,-7.7565994,0.046640433,0.0,-0.052746985,0.12356993,1.8568504,0.0,0.0,0.0,0.0,0.0,0.0,0.006285605,-0.03586881,-0.43134314
2557080387,0.38919258,-1.0147402,-7.5604305,0.046640433,0.0,-0.057911046,0.10756236,1.870553,0.0,0.0,0.0,0.0,0.0,0.0,0.005444156,-0.029066883,-0.4347267
2557184495,0.3852045,-1.0137454,-7.3623085,0.046640433,0.0,-0.06378393,0.0926993,1.8807836,0.0,0.0,0.0,0.0,0.0,0.0,-0.002369834,-0.028258458,-0.44138223
2557281172,0.3816166,-1.012809,-7.1772857,0.046640433,0.0,-0.07128638,0.081759706,1.8871839,0.0,0.0,0.0,0.0,0.0,0.0,0.0027332632,-0.03154887,-0.43632036
2557385678,0.3778619,-1.0118303,-6.977109,0.046640433,0.0,-0.080096,0.07042134,1.8969805,0.0,0.0,0.0,0.0,0.0,0.0,0.005601229,-0.02632475,-0.4303746
2557489361,0.37424168,-1.0108503,-6.777337,0.046640433,0.0,-0.09181296,0.060924675,1.9117849,0.0,0.0,0.0,0.0,0.0,0.0,-0.0002833996,-0.023443852,-0.4195014
2557585210,0.3710033,-1.0099434,-6.593679,0.046640433,0.0,-0.10402709,0.053576272,1.9285727,0.0,0.0,0.0,0.0,0.0,0.0,-0.009268619,-0.026209652,-0.4158693
2557690100,0.36759463,-1.0089663,-6.393154,0.046640433,0.0,-0.11059176,0.05106958,1.943581,0.0,0.0,0.0,0.0,0.0,0.0,0.009422362,-0.028460795,-0.41384292
2557794170,0.36434382,-1.0079954,-6.1949263,0.046640433,0.0,-0.11454465,0.047033798,1.957723,0.0,0.0,0.0,0.0,0.0,0.0,0.005941895,-0.031113416,-0.41854176
2557890104,0.3614231,-1.0071192,-6.01208,0.046640433,0.0,-0.114423804,0.045074467,1.9741203,0.0,0.0,0.0,0.0,0.0,0.0,0.0108294,-0.030394971,-0.41779765
2557994330,0.3583681,-1.0061743,-5.813621,0.046640433,0.0,-0.11322213,0.040863756,1.9915642,0.0,0.0,0.0,0.0,0.0,0.0,0.0018586824,-0.028640434,-0.41023272
2558094786,0.35552743,-1.0052557,-5.6219764,0.046640433,0.0,-0.115758345,0.036040287,1.9990957,0.0,0.0,0.0,0.0,0.0,0.0,0.0016455045,-0.02971711,-0.42638466
2558198993,0.35262895,-1.0043333,-5.4256535,0.046640433,0.0,-0.11975244,0.02820884,1.9493008,0.0,0.0,0.0,0.0,0.0,0.0,0.0012152949,-0.032706425,-0.4595953
2558295323,0.35007522,-1.0034786,-5.25066,0.046640433,0.0,-0.12409933,0.02186798,1.8517979,0.0,0.0,0.0,0.0,0.0,0.0,0.0014496418,-0.032672897,-0.4803005
2558399627,0.3473899,-1.0025717,-5.071813,0.046640433,0.0,-0.1304917,0.014421439,1.6928853,0.0,0.0,0.0,0.0,0.0,0.0,0.004736631,-0.039118223,-0.5066422
2558503628,0.34480774,-1.001666,-4.910064,0.046640433,0.0,-0.13327605,0.010259442,1.4829851,0.0,0.0,0.0,0.0,0.0,0.0,0.0035976637,-0.035989415,-0.5368161
2558599635,0.34251678,-1.000855,-4.7789626,0.046640433,0.0,-0.13481049,0.0066824695,1.234679,0.0,0.0,0.0,0.0,0.0,0.0,0.00455767,-0.031024963,-0.55878025
2558703602,0.34009257,-0.99998486,-4.660706,0.046640433,0.0,-0.13748825,0.009544629,0.94117546,0.0,0.0,0.0,0.0,0.0,0.0,0.0006619822,-0.03267634,-0.56157255
2558805067,0.3378155,-0.99918205,-4.568239,0.046640433,0.0,-0.14028965,0.014054276,0.70866466,0.0,0.0,0.0,0.0,0.0,0.0,-0.0005662935,-0.023869712,-0.5491896
2558908556,0.33555698,-0.99833393,-4.492252,0.046640433,0.0,-0.14205515,0.023452818,0.5235142,0.0,0.0,0.0,0.0,0.0,0.0,-0.0033721225,-0.021964826,-0.5311895
2559012396,0.33337286,-0.9975425,-4.4303894,0.046640433,0.0,-0.14366013,0.026818011,0.39828616,0.0,0.0,0.0,0.0,0.0,0.0,-0.004770969,-0.02288469,-0.5116638
2559108556,0.33141917,-0.9968243,-4.3817625,0.046640433,0.0,-0.14231226,0.036001187,0.33086866,0.0,0.0,0.0,0.0,0.0,0.0,0.00308079,-0.024967257,-0.49276966
2559213278,0.32935607,-0.99601686,-4.3338475,0.046640433,0.0,-0.14056769,0.04163602,0.3088576,0.0,0.0,0.0,0.0,0.0,0.0,-0.0063012065,-0.023423925,-0.48231873
2559317367,0.32735837,-0.9952577,-4.2868757,0.046640433,0.0,-0.13319048,0.05896209,0.33819222,0.0,0.0,0.0,0.0,0.0,0.0,0.004447818,-0.023144897,-0.45489702
2559422159,0.32544234,-0.9945264,-4.2379556,0.046640433,0.0,-0.12446896,0.07106988,0.36251676,0.0,0.0,0.0,0.0,0.0,0.0,0.00010121707,-0.019475404,-0.44274986
2559525689,0.32358223,-0.9937715,-4.1896625,0.046640433,0.0,-0.11776318,0.08981654,0.37797052,0.0,0.0,0.0,0.0,0.0,0.0,-0.0022912435,-0.014206332,-0.4476844
2559622768,0.3219017,-0.99312663,-4.1444607,0.046640433,0.0,-0.114221066,0.10526966,0.3835197,0.0,0.0,0.0,0.0,0.0,0.0,-0.0012402907,-0.016666615,-0.45678532
2559726673,0.32016087,-0.992419,-4.096512,0.046640433,0.0,-0.11115052,0.12464884,0.38481438,0.0,0.0,0.0,0.0,0.0,0.0,-0.001349763,-0.010577881,-0.45941415
2559830043,0.31849545,-0.99174356,-4.048968,0.046640433,0.0,-0.10682732,0.13929349,0.38460875,0.0,0.0,0.0,0.0,0.0,0.0,-0.0009854985,-0.013055786,-0.45807892
2559926121,0.3169875,-0.9911198,-4.005072,0.046640433,0.0,-0.09815911,0.15298945,0.38531885,0.0,0.0,0.0,0.0,0.0,0.0,-0.008009247,-0.007935579,-0.4625495
2560031254,0.31543863,-0.9904597,-3.957305,0.046640433,0.0,-0.09264061,0.1657765,0.38822958,0.0,0.0,0.0,0.0,0.0,0.0,0.011104944,-0.012357407,-0.4591774
2560134848,0.31390297,-0.98981714,-3.91041,0.046640433,0.0,-0.084392145,0.17909953,0.39159775,0.0,0.0,0.0,0.0,0.0,0.0,-0.0019749748,-0.010908176,-0.46277088
2560230951,0.31255707,-0.98922694,-3.8671186,0.046640433,0.0,-0.07865485,0.18840034,0.39292133,0.0,0.0,0.0,0.0,0.0,0.0,0.0012227073,-0.010771373,-0.45512453
2560334920,0.31114173,-0.98864484,-3.8205822,0.046640433,0.0,-0.07399922,0.20169201,0.39522856,0.0,0.0,0.0,0.0,0.0,0.0,0.0019182414,-0.010775332,-0.46330035
2560435597,0.3098404,-0.9880684,-3.775751,0.046640433,0.0,-0.065460026,0.21121679,0.3921777,0.0,0.0,0.0,0.0,0.0,0.0,0.0016494123,-0.011633288,-0.46523118
2560539571,0.30851454,-0.9874938,-3.729596,0.046640433,0.0,-0.057253484,0.21556506,0.3918953,0.0,0.0,0.0,0.0,0.0,0.0,0.009917199,-0.010273122,-0.461641
2560643638,0.3072377,-0.9869362,-3.6834056,0.046640433,0.0,-0.04699411,0.21667121,0.38256222,0.0,0.0,0.0,0.0,0.0,0.0,-0.0027692104,-0.015265535,-0.46603158
2560740515,0.30608353,-0.98640734,-3.640404,0.046640433,0.0,-0.037510827,0.21485254,0.37644365,0.0,0.0,0.0,0.0,0.0,0.0,0.0052042045,-0.016812619,-0.45956266
2560844361,0.30487478,-0.9858803,-3.5941334,0.046640433,0.0,-0.029087583,0.21073502,0.3742689,0.0,0.0,0.0,0.0,0.0,0.0,0.0008218107,-0.014230896,-0.46314806
2560940529,0.30377182,-0.9853965,-3.5511518,0.046640433,0.0,-0.021560293,0.20442435,0.36738604,0.0,0.0,0.0,0.0,0.0,0.0,-0.0010090964,-0.017466431,-0.46586943
2561044514,0.30262893,-0.9848834,-3.5045261,0.046640433,0.0,-0.01677885,0.19833632,0.36420602,0.0,0.0,0.0,0.0,0.0,0.0,0.008741971,-0.016586017,-0.46692857
2561149538,0.30147886,-0.9843657,-3.457283,0.046640433,0.0,-0.01363264,0.19176562,0.3604502,0.0,0.0,0.0,0.0,0.0,0.0,-0.003970733,-0.020243447,-0.4641344
2561245393,0.3004743,-0.9838978,-3.4139152,0.046640433,0.0,-0.012614643,0.18424034,0.3613438,0.0,0.0,0.0,0.0,0.0,0.0,0.0018710447,-0.021361705,-0.46258852
2561349662,0.29938683,-0.98339933,-3.3666205,0.046640433,0.0,-0.0056683463,0.17427328,0.36113375,0.0,0.0,0.0,0.0,0.0,0.0,8.4912404e-05,-0.018640779,-0.46444577
2561453347,0.29835188,-0.9829135,-3.319174,0.046640433,0.0,-0.0032473765,0.16474952,0.361233,0.0,0.0,0.0,0.0,0.0,0.0,0.0010269764,-0.021111744,-0.46001372
2561550023,0.29739508,-0.98245436,-3.2747712,0.046640433,0.0,0.0016502151,0.15486144,0.368325,0.0,0.0,0.0,0.0,0.0,0.0,0.0021183384,-0.023263913,-0.455478
2561654444,0.29638442,-0.9819838,-3.226594,0.046640433,0.0,0.0037373165,0.14589897,0.37021515,0.0,0.0,0.0,0.0,0.0,0.0,0.004138765,-0.026384268,-0.45160815
2561758124,0.29541817,-0.981531,-3.1784973,0.046640433,0.0,0.006091607,0.13938111,0.37430167,0.0,0.0,0.0,0.0,0.0,0.0,-0.0079738535,-0.016362447,-0.45982456
2561854143,0.2945386,-0.98111844,-3.1338713,0.046640433,0.0,0.009702634,0.13426498,0.37767413,0.0,0.0,0.0,0.0,0.0,0.0,-0.0035002893,-0.019980805,-0.4563446
2561958747,0.2935905,-0.9806514,-3.0851173,0.046640433,0.0,0.012372952,0.13065094,0.37681562,0.0,0.0,0.0,0.0,0.0,0.0,-0.0018803482,-0.022148792,-0.45889446
2562062909,0.29273108,-0.9802287,-3.0364633,0.046640433,0.0,0.015859691,0.12341135,0.37179828,0.0,0.0,0.0,0.0,0.0,0.0,-0.0012720763,-0.021423548,-0.46329278
2562158796,0.2919343,-0.9798457,-2.9914885,0.046640433,0.0,0.01885409,0.11450124,0.3681274,0.0,0.0,0.0,0.0,0.0,0.0,0.0078049004,-0.026680652,-0.46299103
2562262792,0.29108548,-0.9794405,-2.9424815,0.046640433,0.0,0.024536636,0.10582837,0.3610413,0.0,0.0,0.0,0.0,0.0,0.0,0.0032774014,-0.025652748,-0.46621084
2562367780,0.29024294,-0.9790173,-2.8926427,0.046640433,0.0,0.029803488,0.09567646,0.35997897,0.0,0.0,0.0,0.0,0.0,0.0,0.00034142192,-0.02438987,-0.46265927
2562463874,0.2894911,-0.9786267,-2.8460882,0.046640433,0.0,0.038854264,0.09107057,0.36014834,0.0,0.0,0.0,0.0,0.0,0.0,-0.000501201,-0.023121936,-0.46017736
2562567606,0.28868034,-0.9782301,-2.7946014,0.046640433,0.0,0.047283232,0.08438131,0.36860424,0.0,0.0,0.0,0.0,0.0,0.0,-0.0023291162,-0.027357364,-0.4532405
2562668431,0.28790382,-0.9778765,-2.7441707,0.046640433,0.0,0.05406615,0.08288823,0.3730457,0.0,0.0,0.0,0.0,0.0,0.0,0.0038526007,-0.026108097,-0.4630974
2562772608,0.2871201,-0.97749966,-2.6920831,0.046640433,0.0,0.058648128,0.079031,0.37731093,0.0,0.0,0.0,0.0,0.0,0.0,-0.0026476863,-0.024885919,-0.4568775
2562876565,0.28636286,-0.9771273,-2.6401072,0.046640433,0.0,0.060371317,0.07872878,0.37904376,0.0,0.0,0.0,0.0,0.0,0.0,-0.0024824757,-0.02251193,-0.463158
2562972560,0.2856845,-0.976785,-2.5921252,0.046640433,0.0,0.05629942,0.07795836,0.38467446,0.0,0.0,0.0,0.0,0.0,0.0,-0.0046343794,-0.018049097,-0.4587807
2563077340,0.28498057,-0.97642314,-2.5397336,0.046640433,0.0,0.052926794,0.07715125,0.3899793,0.0,0.0,0.0,0.0,0.0,0.0,-0.005194972,-0.01694038,-0.45762774
2563181220,0.28428307,-0.9760866,-2.4877777,0.046640433,0.0,0.046751436,0.07760236,0.3983627,0.0,0.0,0.0,0.0,0.0,0.0,-0.006158734,-0.017485585,-0.45397317
2563277225,0.2836843,-0.9757848,-2.439763,0.046640433,0.0,0.0487102,0.08141592,0.4088544,0.0,0.0,0.0,0.0,0.0,0.0,-0.003260164,-0.020218877,-0.45827726
2563381356,0.283085,-0.9754848,-2.3876936,0.046640433,0.0,0.05040731,0.08588619,0.4228359,0.0,0.0,0.0,0.0,0.0,0.0,-0.006172213,-0.017219238,-0.45118496
2563478134,0.28246439,-0.9751824,-2.3393185,0.046640433,0.0,0.051297344,0.09139683,0.43111086,0.0,0.0,0.0,0.0,0.0,0.0,0.00041311188,-0.015683964,-0.4475488
2563582450,0.28187972,-0.97488976,-2.2874303,0.046640433,0.0,0.05067787,0.09675703,0.43727517,0.0,0.0,0.0,0.0,0.0,0.0,-0.004755149,-0.015254628,-0.45597222
2563685995,0.2812938,-0.9745923,-2.2363193,0.046640433,0.0,0.05570157,0.103282526,0.4363615,0.0,0.0,0.0,0.0,0.0,0.0,-0.0010761595,-0.019418307,-0.4594531
2563790542,0.28074813,-0.9743042,-2.1843698,0.046640433,0.0,0.058125008,0.107088946,0.44392857,0.0,0.0,0.0,0.0,0.0,0.0,-0.0054079695,-0.013453222,-0.44405752
2563894876,0.28022593,-0.9739976,-2.1336591,0.046640433,0.0,0.060213838,0.112216726,0.45704955,0.0,0.0,0.0,0.0,0.0,0.0,-0.0021804487,-0.016925335,-0.43481463
2563990865,0.27978486,-0.97375035,-2.0878184,0.046640433,0.0,0.055835065,0.113700055,0.46955705,0.0,0.0,0.0,0.0,0.0,0.0,-0.0016589798,-0.011441168,-0.42773542
2564095120,0.27926183,-0.97349215,-2.0371017,0.046640433,0.0,0.05053936,0.120174006,0.48288283,0.0,0.0,0.0,0.0,0.0,0.0,-0.013218907,-0.0111404685,-0.42831242
2564198939,0.27877083,-0.9732581,-1.9878862,0.046640433,0.0,0.042407412,0.12539499,0.49453327,0.0,0.0,0.0,0.0,0.0,0.0,-0.020303922,-0.00994401,-0.42472708
2564295664,0.27835265,-0.973021,-1.9429038,0.046640433,0.0,0.035623085,0.13355543,0.5245328,0.0,0.0,0.0,0.0,0.0,0.0,0.00021999166,-0.011811921,-0.2656592
2564399752,0.277919,-0.9728099,-1.8947005,0.046640433,0.0,0.028358838,0.1404011,0.6002228,0.0,0.0,0.0,0.0,0.0,0.0,-0.01043905,-0.009400912,-0.24311236
2564503760,0.27750129,-0.97256005,-1.8466953,0.046640433,0.0,0.026665036,0.1482233,0.6604358,0.0,0.0,0.0,0.0,0.0,0.0,-0.015213513,-0.0053223446,-0.27052376
2564599798,0.27711478,-0.97236574,-1.8025,0.046640433,0.0,0.02156359,0.15151893,0.7118808,0.0,0.0,0.0,0.0,0.0,0.0,-0.012334431,-0.017923161,-0.20310304
2564700342,0.2767264,-0.97217417,-1.7563171,0.046640433,0.0,0.024815757,0.15464525,0.7744073,0.0,0.0,0.0,0.0,0.0,0.0,0.0,0.0,-0.22846375
2564804920,0.2763408,-0.97197247,-1.7083986,0.046640433,0.0,0.020606883,0.15345603,0.8380835,0.0,0.0,0.0,0.0,0.0,0.0,0.0,0.0,-0.182035
2564908343,0.2759819,-0.9717642,-1.6607877,0.046640433,0.0,0.022221878,0.15502636,0.90864915,0.0,0.0,0.0,0.0,0.0,0.0,0.0,0.0,-0.16254385
2565004532,0.27564782,-0.9715946,-1.6166178,0.046640433,0.0,0.017943522,0.15450764,0.9775951,0.0,0.0,0.0,0.0,0.0,0.0,0.0,0.0,-0.13470148
2565109411,0.2753021,-0.9714034,-1.5684478,0.046640433,0.0,0.018011685,0.15624312,1.050613,0.0,0.0,0.0,0.0,0.0,0.0,0.0,0.0,-0.12
2565213369,0.2749572,-0.9712215,-1.5207113,0.046640433,0.0,0.013083334,0.15520144,1.1166102,0.0,0.0,0.0,0.0,0.0,0.0,0.0,0.0,-0.12
2565309387,0.27462804,-0.9710446,-1.4766746,0.046640433,0.0,0.016238807,0.15878162,1.1785908,0.0,0.0,0.0,0.0,0.0,0.0,0.0,0.0,0.0
2565413201,0.2743035,-0.97087055,-1.4291148,0.046640433,0.0,0.013822036,0.15836033,1.2459674,0.0,0.0,0.0,0.0,0.0,0.0,0.0,0.0,0.0
2565518045,0.27397504,-0.9707001,-1.381139,0.046640433,0.0,0.019463899,0.16378142,1.3102188,0.0,0.0,0.0,0.0,0.0,0.0,0.0,0.0,0.0
2565614709,0.0,0.0,0.0,0.0320143,0.0,0.0,0.0,0.0,0.0,0.0,0.0,0.0,0.0,0.0,0.0,0.0,0.0
2565718195,0.0,0.0,0.0,0.032014173,0.0,0.0,0.0,0.0,0.0,0.0,0.0,0.0,0.0,0.0,0.0,0.0,0.0
2565822299,0.0,0.0,0.0,0.03187868,0.0,0.0,0.0,0.0,0.0,0.0,0.0,0.0,0.0,0.0,0.0,0.0,0.0
2565918859,0.0,0.0,0.0,0.03165785,0.0,0.0,0.0,0.0,0.0,0.0,0.0,0.0,0.0,0.0,0.0,0.0,0.0
