timestamp,ref_timestamp,ref_lat,ref_lon,x,y,z,delta_xy[0],delta_xy[1],delta_z,vx,vy,vz,z_deriv,delta_vxy[0],delta_vxy[1],delta_vz,ax,ay,az,yaw,ref_alt,dist_bottom,dist_bottom_rate,eph,epv,evh,evv,vxy_max,vz_max,hagl_min,hagl_max,xy_valid,z_valid,v_xy_valid,v_z_valid,xy_reset_counter,z_reset_counter,vxy_reset_counter,vz_reset_counter,xy_global,z_global,dist_bottom_valid
2480611678,21185227,32.387482,-117.07643779999998,0.2588207,-0.9694313,-1.7258061,-0.009936107,-0.0021225822,0.0,-0.007830689,-0.012366969,-0.000788776,0.0024621931,-0.046932053,-0.0029370706,0.062913015,0.2922456,-0.6028081,0.09418025,0.047121413,18.456049,0.106633544,0.000788776,0.3672682,0.23884378,0.16726086,0.104150936,inf,inf,inf,inf,1,1,1,1,2,0,2,2,1,1,0
2480715532,21185227,32.387482,-117.07643779999998,0.25540057,-0.97084296,-1.724701,-0.009936107,-0.0021225822,0.0,-0.01662727,-0.012352153,-0.003616603,0.00033814332,-0.046932053,-0.0029370706,0.062913015,-0.32713112,0.6818615,-0.63677907,0.04748342,18.456049,0.1,0.003616603,0.3555334,0.23731877,0.16291706,0.103456244,inf,inf,inf,inf,1,1,1,1,2,0,2,2,1,1,0
2480812339,21185227,32.387482,-117.07643779999998,0.25280502,-0.9720276,-1.7254055,-0.009936107,-0.0021225822,0.0,-0.0092360955,-0.010124152,0.007482426,0.010156563,-0.046932053,-0.0029370706,0.062913015,0.0900369,0.6728237,0.24769698,0.047236536,18.456049,0.1,-0.007482426,0.367299,0.23820923,0.16728342,0.103992894,inf,inf,inf,inf,1,1,1,1,2,0,2,2,1,1,0
2480916400,21185227,32.387482,-117.07643779999998,0.2489095,-0.973872,-1.7300618,-0.009936107,-0.0021225822,0.0,-0.022257043,-0.02125393,-0.0056428774,-0.007832338,-0.046932053,-0.0029370706,0.062913015,0.840289,-1.0716968,0.39877054,0.047492612,18.456049,0.1,0.0056428774,0.35549638,0.23676236,0.16285314,0.1033271,inf,inf,inf,inf,1,1,1,1,2,0,2,2,1,1,0
2481020397,21185227,32.387482,-117.07643779999998,0.24537696,-0.9756509,-1.7374074,-0.009936107,-0.0021225822,0.0,-0.020118987,-0.010788544,-0.010215116,-0.019022351,-0.046932053,-0.0029370706,0.062913015,0.1457534,-0.29823214,0.21718808,0.04714431,18.456049,0.1,0.010215116,0.34443793,0.23701578,0.15862934,0.1030691,inf,inf,inf,inf,1,1,1,1,2,0,2,2,1,1,0
2481124325,21185227,32.387482,-117.07643779999998,0.24117057,-0.97732526,-1.7505106,-0.009936107,-0.0021225822,0.0,-0.025684904,-0.0111804465,-0.017509183,-0.03724407,-0.046932053,-0.0029370706,0.062913015,-0.999563,0.82821995,-1.8193754,0.04711163,18.456049,0.1,0.017509183,0.35666084,0.23685299,0.1633193,0.103374265,inf,inf,inf,inf,1,1,1,1,2,0,2,2,1,1,0
2481221087,21185227,32.387482,-117.07643779999998,0.23773636,-0.9783045,-1.7629861,-0.009936107,-0.0021225822,0.0,-0.02118871,-0.015649578,-0.012191059,-0.04063381,-0.046932053,-0.0029370706,0.062913015,1.5412616,-0.33250594,1.164335,0.046674553,18.456049,0.1,0.012191059,0.34461722,0.23642485,0.15867922,0.102925986,inf,inf,inf,inf,1,1,1,1,2,0,2,2,1,1,0
2481325129,21185227,32.387482,-117.07643779999998,0.23420423,-0.9769121,-1.7774938,-0.009936107,-0.0021225822,0.0,-0.028153477,-0.018742425,-0.013263871,-0.0507216,-0.046932053,-0.0029370706,0.062913015,-0.9406699,-1.088189,0.8651427,0.04703036,18.456049,0.1,0.013263871,0.3568484,0.23630477,0.16335545,0.103247374,inf,inf,inf,inf,1,1,1,1,2,0,2,2,1,1,0
2481429205,21185227,32.387482,-117.07643779999998,0.23199438,-0.9753332,-1.7930914,-0.009936107,-0.0021225822,0.0,-0.014493347,-0.0065685757,-0.021363515,-0.06712754,-0.046932053,-0.0029370706,0.062913015,1.2264972,-0.25076255,1.394319,0.04673182,18.456049,0.1,0.021363515,0.34581807,0.23661785,0.15912122,0.10301651,inf,inf,inf,inf,1,1,1,1,2,0,2,2,1,1,0
2481525227,21185227,32.387482,-117.07643779999998,0.23183443,-0.9734464,-1.8034765,-0.009936107,-0.0021225822,0.0,-0.023787366,-0.0068612224,-0.035567977,-0.08373349,-0.046932053,-0.0029370706,0.062913015,0.65242934,0.6643383,-0.97562367,0.046885934,18.456049,0.1,0.035567977,0.35713896,0.23591875,0.1634792,0.1031681,inf,inf,inf,inf,1,1,1,1,2,0,2,2,1,1,0
2481629907,21185227,32.387482,-117.07643779999998,0.23169668,-0.97121495,-1.8087227,-0.009936107,-0.0021225822,0.0,-0.015962198,0.0009314787,-0.031540178,-0.07604591,-0.046932053,-0.0029370706,0.062913015,0.7994273,1.4884343,-0.76432794,0.047044747,18.456049,0.110484004,0.031540178,0.34607482,0.23621182,0.15920022,0.102944516,inf,inf,inf,inf,1,1,1,1,2,0,2,2,1,1,0
2481733919,21185227,32.387482,-117.07643779999998,0.23227385,-0.96850055,-1.8100871,-0.009936107,-0.0021225822,0.0,-0.016393952,-0.0023536922,-0.030154321,-0.06785729,-0.046932053,-0.0029370706,0.062913015,1.0354534,-0.54263103,-0.8881535,0.04752104,18.456049,0.12233627,0.030154321,0.35837165,0.23612519,0.16388088,0.103273526,inf,inf,inf,inf,1,1,1,1,2,0,2,2,1,1,0
2481829959,21185227,32.387482,-117.07643779999998,0.23271042,-0.96586555,-1.8084266,-0.009936107,-0.0021225822,0.0,-0.01880192,0.00025303676,-0.02417266,-0.05353524,-0.046932053,-0.0029370706,0.062913015,-0.23302831,-0.40835938,0.27570623,0.047516808,18.456049,0.121058345,0.02417266,0.3464187,0.2358208,0.1592864,0.10285605,inf,inf,inf,inf,1,1,1,1,2,0,2,2,1,1,0
2481933992,21185227,32.387482,-117.07643779999998,0.23319505,-0.96231663,-1.8067316,-0.009936107,-0.0021225822,0.0,-0.019673448,0.007833183,-0.0218959,-0.043703422,-0.046932053,-0.0029370706,0.062913015,-0.59630996,1.1051989,0.6139325,0.04761375,18.456049,0.115484,0.0218959,0.35872948,0.23738615,0.16393128,0.10360417,inf,inf,inf,inf,1,1,1,1,2,0,2,2,1,1,0
2482038812,21185227,32.387482,-117.07643779999998,0.23355116,-0.9590338,-1.8033268,-0.009936107,-0.0021225822,0.0,-0.01313423,0.008574496,-0.017571513,-0.03124508,-0.046932053,-0.0029370706,0.062913015,1.1300025,-0.41915843,1.6338053,0.047595564,18.456049,0.11883998,0.017571513,0.3477594,0.2359439,0.15974328,0.10292335,inf,inf,inf,inf,1,1,1,1,2,0,2,2,1,1,0
2482134720,21185227,32.387482,-117.07643779999998,0.23415364,-0.9558564,-1.8018038,-0.009936107,-0.0021225822,0.0,-0.023995563,0.008353902,-0.023795994,-0.032806747,-0.046932053,-0.0029370706,0.062913015,-1.6791816,-0.8207731,-1.5036529,0.04786294,18.456049,0.118837,0.023795994,0.35925227,0.23694192,0.16410987,0.10349085,inf,inf,inf,inf,1,1,1,1,2,0,2,2,1,1,0
2482238761,21185227,32.387482,-117.07643779999998,0.23440349,-0.95279044,-1.7996823,-0.009936107,-0.0021225822,0.0,-0.010107022,0.017837632,-0.025596999,-0.029693473,-0.046932053,-0.0029370706,0.062913015,0.50344914,0.93631196,0.5074301,0.04814508,18.456049,0.11429727,0.025596999,0.34793687,0.23554598,0.15969507,0.10281952,inf,inf,inf,inf,1,1,1,1,2,0,2,2,1,1,0
2482339526,21185227,32.387482,-117.07643779999998,0.23623356,-0.9495186,-1.8018348,-0.009936107,-0.0021225822,0.0,0.0003936143,0.026952075,-0.097098134,-0.09937278,-0.046932053,-0.0029370706,0.062913015,5.6673827,0.09931904,-1.5064695,0.048480798,18.456049,0.11644983,0.097098134,0.36029735,0.2355125,0.16436218,0.10316459,inf,inf,inf,inf,1,1,1,1,2,0,2,2,1,1,0
2482443529,21185227,32.387482,-117.07643779999998,0.23914984,-0.9453551,-1.8290198,-0.009936107,-0.0021225822,0.0,0.020812728,0.046526626,-0.51264936,-0.5145626,-0.046932053,-0.0029370706,0.062913015,-2.977677,4.286293,-6.3832417,0.051748965,18.456049,0.1436348,0.51264936,0.34907237,0.23421043,0.16003363,0.10253358,inf,inf,inf,inf,1,1,1,1,2,0,2,2,1,1,0
2482539538,21185227,32.387482,-117.07643779999998,0.24258132,-0.93765974,-1.9109815,-0.009936107,-0.0021225822,0.0,0.026005277,0.12318065,-1.1193469,-1.1254671,-0.046932053,-0.0029370706,0.062913015,1.6379108,6.2868605,-6.7690415,0.05463484,18.456049,0.22559655,1.1193469,0.36012584,0.23660779,0.16479859,0.10351629,inf,inf,inf,inf,1,1,1,1,2,0,2,2,1,1,0
2482643584,21185227,32.387482,-117.07643779999998,0.24406524,-0.9192096,-2.0726004,-0.009936107,-0.0021225822,0.0,-0.014232698,0.23036762,-1.8074892,-1.8223429,-0.046932053,-0.0029370706,0.062913015,0.05127445,5.357302,-6.7242455,0.057331588,18.456049,0.38721538,1.8074892,0.34899,0.23526274,0.16257508,0.10286761,inf,inf,inf,inf,1,1,1,1,2,0,2,2,1,1,0
2482748340,21185227,32.387482,-117.07643779999998,0.2412998,-0.8894168,-2.304196,-0.009936107,-0.0021225822,0.0,-0.04322017,0.28043392,-2.372022,-2.3944004,-0.046932053,-0.0029370706,0.062913015,-1.2699587,-2.3381078,-3.0872202,0.057929695,18.456049,0.6188109,2.372022,0.36160287,0.23689812,0.17012933,0.10363699,inf,inf,inf,inf,1,1,1,1,2,0,2,2,1,1,0
2482844345,21185227,32.387482,-117.07643779999998,0.23658442,-0.8597529,-2.5470622,-0.009936107,-0.0021225822,0.0,-0.045665946,0.30141258,-2.4273603,-2.4560006,-0.046932053,-0.0029370706,0.062913015,-1.1535182,3.0232673,1.116415,0.0563881,18.456049,0.86167717,2.4273603,0.3494639,0.23654416,0.16755348,0.10320824,inf,inf,inf,inf,1,1,1,1,2,0,2,2,1,1,0
2482948328,21185227,32.387482,-117.07643779999998,0.22861077,-0.83000916,-2.7902136,-0.009936107,-0.0021225822,0.0,-0.04563069,0.2798211,-2.1534007,-2.1819332,-0.046932053,-0.0029370706,0.062913015,5.4397087,1.9851656,3.4063373,0.053393822,18.456049,1.1048286,2.1534007,0.3624497,0.23816259,0.1742311,0.103953846,inf,inf,inf,inf,1,1,1,1,2,0,2,2,1,1,0
2483052447,21185227,32.387482,-117.07643779999998,0.22030641,-0.8057498,-2.9893985,-0.009936107,-0.0021225822,0.0,-0.050930485,0.20896628,-1.7060522,-1.729163,-0.046932053,-0.0029370706,0.062913015,0.36230204,-1.072789,4.6919527,0.05094195,18.456049,1.3040135,1.7060522,0.35133365,0.23666708,0.1687032,0.10323831,inf,inf,inf,inf,1,1,1,1,2,0,2,2,1,1,0
2483149181,21185227,32.387482,-117.07643779999998,0.2122028,-0.7910038,-3.1279683,-0.009936107,-0.0021225822,0.0,-0.032969117,0.13816285,-1.2542034,-1.2710751,-0.046932053,-0.0029370706,0.062913015,1.117196,-3.655528,4.688082,0.056250207,18.456049,1.4425833,1.2542034,0.36323842,0.23754482,0.17166957,0.10376049,inf,inf,inf,inf,1,1,1,1,2,0,2,2,1,1,0
2483253105,21185227,32.387482,-117.07643779999998,0.20905304,-0.7824045,-3.2340019,-0.009936107,-0.0021225822,0.0,0.0425391,0.09922969,-0.88669497,-0.89802593,-0.046932053,-0.0029370706,0.062913015,4.083898,-0.9479367,4.8425417,0.07822247,18.456049,1.5486169,0.88669497,0.35212946,0.23768263,0.16487503,0.10343277,inf,inf,inf,inf,1,1,1,1,2,0,2,2,1,1,0
2483357179,21185227,32.387482,-117.07643779999998,0.21625066,-0.78163064,-3.3086457,-0.009936107,-0.0021225822,0.0,0.15706353,0.04347237,-0.6959764,-0.7001077,-0.046932053,-0.0029370706,0.062913015,3.5516868,-2.9538276,0.99448746,0.08279333,18.456049,1.6232607,0.6959764,0.36493683,0.23756772,0.16770835,0.10366468,inf,inf,inf,inf,1,1,1,1,2,0,2,2,1,1,0
2483453133,21185227,32.387482,-117.07643779999998,0.24065892,-0.7781142,-3.3644228,-0.009936107,-0.0021225822,0.0,0.33300346,0.09171487,-0.59938365,-0.5973489,-0.046932053,-0.0029370706,0.062913015,3.0482006,2.289009,2.8755672,0.077736095,18.456049,1.6790378,0.59938365,0.35296074,0.23877311,0.16170889,0.10358569,inf,inf,inf,inf,1,1,1,1,2,0,2,2,1,1,0
2483557985,21185227,32.387482,-117.07643779999998,0.29068178,-0.76351964,-3.4214938,-0.009936107,-0.0021225822,0.0,0.53953654,0.17417377,-0.5503603,-0.5453445,-0.046932053,-0.0029370706,0.062913015,2.858239,-1.3840194,0.5783568,0.15044647,18.456049,1.7361088,0.5503603,0.36553323,0.23855075,0.16407308,0.1038157,inf,inf,inf,inf,1,1,1,1,2,0,2,2,1,1,0
2483661946,21185227,32.387482,-117.07643779999998,0.36251265,-0.7381028,-3.4779232,-0.009936107,-0.0021225822,0.0,0.7703662,0.30729678,-0.57881695,-0.57257134,-0.046932053,-0.0029370706,0.062913015,6.088104,1.1954453,2.5559518,0.14508434,18.456049,1.7925382,0.57881695,0.3544508,0.23701487,0.15271804,0.10307254,inf,inf,inf,inf,1,1,1,1,2,0,2,2,1,1,0
2483757928,21185227,32.387482,-117.07643779999998,0.44814408,-0.70445526,-3.533656,-0.009936107,-0.0021225822,0.0,0.9514685,0.3950715,-0.58915734,-0.5828581,-0.046932053,-0.0029370706,0.062913015,3.804114,0.9183098,2.1132603,0.1432977,18.456049,1.8482709,0.58915734,0.36547926,0.23794028,0.15056498,0.10362425,inf,inf,inf,inf,1,1,1,1,2,0,2,2,1,1,0
2483862028,21185227,32.387482,-117.07643779999998,0.5604572,-0.6605716,-3.5979,-0.009936107,-0.0021225822,0.0,1.1527861,0.4753174,-0.6346364,-0.6301731,-0.046932053,-0.0029370706,0.062913015,-0.9671822,-0.47057217,-1.7737942,0.14362328,18.456049,1.9125149,0.6346364,0.35436603,0.23807451,0.14146292,0.1033918,inf,inf,inf,inf,1,1,1,1,2,0,2,2,1,1,0
2483966808,21185227,32.387482,-117.07643779999998,0.69307935,-0.6097948,-3.6671643,-0.009936107,-0.0021225822,0.0,1.3468407,0.5657351,-0.6500409,-0.6490216,-0.046932053,-0.0029370706,0.062913015,-6.871496,1.6189021,-4.1374125,0.14499696,18.456049,1.9817793,0.6500409,0.36537236,0.23955359,0.14062087,0.10419077,inf,inf,inf,inf,1,1,1,1,2,0,2,2,1,1,0
2484062796,21185227,32.387482,-117.07643779999998,0.83494824,-0.5606155,-3.7305675,-0.009936107,-0.0021225822,0.0,1.5506852,0.645294,-0.6515529,-0.65160984,-0.046932053,-0.0029370706,0.062913015,-3.8297708,0.23310009,-2.5073047,0.14679645,18.456049,2.0451825,0.6515529,0.35358584,0.23900996,0.13418806,0.10380611,inf,inf,inf,inf,1,1,1,1,2,0,2,2,1,1,0
2484166722,21185227,32.387482,-117.07643779999998,1.0108278,-0.50132185,-3.7979515,-0.009936107,-0.0021225822,0.0,1.7843133,0.75536716,-0.6107704,-0.6121927,-0.046932053,-0.0029370706,0.062913015,7.923349,2.8045194,3.2802022,0.14946367,18.456049,2.1125665,0.6107704,0.3639189,0.23882332,0.13504376,0.10424651,inf,inf,inf,inf,1,1,1,1,2,0,2,2,1,1,0
2484267593,21185227,32.387482,-117.07643779999998,1.2024821,-0.43744165,-3.8605695,-0.009936107,-0.0021225822,0.0,1.9889352,0.84231645,-0.60444313,-0.6066623,-0.046932053,-0.0029370706,0.062913015,1.5618298,-0.7312753,0.8802363,0.15108429,18.456049,2.1751845,0.60444313,0.35298476,0.23725507,0.13097994,0.103697956,inf,inf,inf,inf,1,1,1,1,2,0,2,2,1,1,0
2484371503,21185227,32.387482,-117.07643779999998,1.423687,-0.3619229,-3.929845,-0.009936107,-0.0021225822,0.0,2.228432,0.96884435,-0.62944365,-0.63630116,-0.046932053,-0.0029370706,0.062913015,4.6079874,3.0258353,-0.70435375,0.15233882,18.456049,2.24446,0.62944365,0.3626226,0.23873188,0.13356702,0.10464118,inf,inf,inf,inf,1,1,1,1,2,0,2,2,1,1,0
2484475607,21185227,32.387482,-117.07643779999998,1.671235,-0.27590767,-4.001911,-0.009936107,-0.0021225822,0.0,2.4685328,1.0766894,-0.61724174,-0.62992734,-0.046932053,-0.0029370706,0.062913015,1.3195112,-2.570003,-0.21572252,0.15051727,18.456049,2.3165262,0.61724174,0.35168427,0.23696424,0.13157538,0.10415242,inf,inf,inf,inf,1,1,1,1,2,0,2,2,1,1,0
2484571513,21185227,32.387482,-117.07643779999998,1.9197483,-0.18556231,-4.070472,-0.009936107,-0.0021225822,0.0,2.6654692,1.1741529,-0.58578134,-0.6084812,-0.046932053,-0.0029370706,0.062913015,2.3325138,-1.5435152,-1.1696433,0.1473539,18.456049,2.3850868,0.58578134,0.36014602,0.23786983,0.13543916,0.10499952,inf,inf,inf,inf,1,1,1,1,2,0,2,2,1,1,0
2484675599,21185227,32.387482,-117.07643779999998,2.215713,-0.08178457,-4.1470056,-0.009936107,-0.0021225822,0.0,2.9178076,1.30064,-0.6102608,-0.64387983,-0.046932053,-0.0029370706,0.062913015,4.5229907,3.581238,0.98343915,0.143613,18.456049,2.4616206,0.6102608,0.34980184,0.23803252,0.13511786,0.10501676,inf,inf,inf,inf,1,1,1,1,2,0,2,2,1,1,0
2484780337,21185227,32.387482,-117.07643779999998,2.53905,0.03519184,-4.2253633,-0.009936107,-0.0021225822,0.0,3.1185236,1.3821365,-0.62373394,-0.66705394,-0.046932053,-0.0029370706,0.062913015,-5.8958864,0.62567884,-4.0796337,0.13834052,18.456049,2.5399783,0.62373394,0.35867864,0.23952441,0.1405132,0.10607815,inf,inf,inf,inf,1,1,1,1,2,0,2,2,1,1,0
2484876318,21185227,32.387482,-117.07643779999998,2.8583465,0.14610508,-4.296512,-0.009936107,-0.0021225822,0.0,3.3434505,1.4744107,-0.58113503,-0.63360804,-0.046932053,-0.0029370706,0.062913015,-0.604772,3.2599435,-2.427996,0.13424979,18.456049,2.6111271,0.58113503,0.34802845,0.2390537,0.14098026,0.105900675,inf,inf,inf,inf,1,1,1,1,2,0,2,2,1,1,0
2484980325,21185227,32.387482,-117.07643779999998,3.2280278,0.27887762,-4.3737583,-0.009936107,-0.0021225822,0.0,3.6112473,1.5658122,-0.5622853,-0.6255428,-0.046932053,-0.0029370706,0.062913015,6.820145,-1.2031236,1.1336467,0.13054492,18.456049,2.6883733,0.5622853,0.35678345,0.23882568,0.1473854,0.106572345,inf,inf,inf,inf,1,1,1,1,2,0,2,2,1,1,0
2485076311,21185227,32.387482,-117.07643779999998,3.59584,0.40448228,-4.4431458,-0.009936107,-0.0021225822,0.0,3.8264308,1.6463835,-0.5640047,-0.63474214,-0.046932053,-0.0029370706,0.062913015,3.0680075,-5.6705933,-0.15029874,0.12817243,18.456049,2.7577608,0.5640047,0.34642413,0.23833837,0.14825784,0.10640944,inf,inf,inf,inf,1,1,1,1,2,0,2,2,1,1,0
2485181203,21185227,32.387482,-117.07643779999998,4.020387,0.5524617,-4.5159435,-0.009936107,-0.0021225822,0.0,4.0791373,1.7509052,-0.53265476,-0.6102408,-0.046932053,-0.0029370706,0.062913015,6.8730083,3.681159,3.012456,0.12533174,18.456049,2.8305585,0.53265476,0.3552423,0.2381916,0.15537643,0.10712771,inf,inf,inf,inf,1,1,1,1,2,0,2,2,1,1,0
2485285104,21185227,32.387482,-117.07643779999998,4.469574,0.70201194,-4.590389,-0.009936107,-0.0021225822,0.0,4.2929397,1.8377614,-0.5487477,-0.6355849,-0.046932053,-0.0029370706,0.062913015,-2.9639285,-0.28874558,-2.0896041,0.12331937,18.456049,2.9050038,0.5487477,0.34589207,0.23846138,0.15679748,0.10718277,inf,inf,inf,inf,1,1,1,1,2,0,2,2,1,1,0
2485389098,21185227,32.387482,-117.07643779999998,4.942212,0.8638529,-4.6664367,-0.009936107,-0.0021225822,0.0,4.535024,1.9461124,-0.52826685,-0.62475353,-0.046932053,-0.0029370706,0.062913015,1.8970727,2.6889243,1.5206549,0.121892326,18.456049,2.9810517,0.52826685,0.35498434,0.23839314,0.16446923,0.10795767,inf,inf,inf,inf,1,1,1,1,2,0,2,2,1,1,0
2485485908,21185227,32.387482,-117.07643779999998,5.404596,1.0161973,-4.7364736,-0.009936107,-0.0021225822,0.0,4.751315,2.0461056,-0.5319731,-0.63552433,-0.046932053,-0.0029370706,0.062913015,0.30845344,2.4401717,0.99196917,0.12081755,18.456049,3.0510886,0.5319731,0.34526697,0.23795235,0.16518548,0.10778306,inf,inf,inf,inf,1,1,1,1,2,0,2,2,1,1,0
2485589935,21185227,32.387482,-117.07643779999998,5.9237103,1.1950005,-4.8158026,-0.009936107,-0.0021225822,0.0,5.0235214,2.1361818,-0.5477677,-0.66247237,-0.046932053,-0.0029370706,0.062913015,4.360452,-2.933917,-0.50832707,0.120353304,18.456049,3.1304176,0.5477677,0.354754,0.23957472,0.17328554,0.10899161,inf,inf,inf,inf,1,1,1,1,2,0,2,2,1,1,0
2485693971,21185227,32.387482,-117.07643779999998,6.468848,1.3769186,-4.8966446,-0.009936107,-0.0021225822,0.0,5.2214103,2.2419078,-0.54496443,-0.6691471,-0.046932053,-0.0029370706,0.062913015,3.9451935,1.3998698,2.465504,0.120149076,18.456049,3.2112596,0.54496443,0.34606287,0.23984754,0.1740068,0.10901004,inf,inf,inf,inf,1,1,1,1,2,0,2,2,1,1,0
2485789906,21185227,32.387482,-117.07643779999998,6.9919424,1.5587124,-4.9703174,-0.009936107,-0.0021225822,0.0,5.441928,2.3473158,-0.5400314,-0.6714412,-0.046932053,-0.0029370706,0.062913015,3.5616693,1.6543024,0.45633996,0.1191579,18.456049,3.2849324,0.5400314,0.35533005,0.23914737,0.1817638,0.10958504,inf,inf,inf,inf,1,1,1,1,2,0,2,2,1,1,0
2485894797,21185227,32.387482,-117.07643779999998,7.5862794,1.756179,-5.044855,-0.009936107,-0.0021225822,0.0,5.6654887,2.4381633,-0.52992684,-0.66453743,-0.046932053,-0.0029370706,0.062913015,-1.0390791,3.0552566,-0.87626374,0.11842381,18.456049,3.3594701,0.52992684,0.34678718,0.23773605,0.1816599,0.10909965,inf,inf,inf,inf,1,1,1,1,2,0,2,2,1,1,0
2485990711,21185227,32.387482,-117.07643779999998,8.149896,1.9496026,-5.1134834,-0.009936107,-0.0021225822,0.0,5.873207,2.50089,-0.48585996,-0.6259675,-0.046932053,-0.0029370706,0.062913015,-0.2736214,-0.628411,-0.41270167,0.11840448,18.456049,3.4280984,0.48585996,0.35661107,0.23882326,0.18925351,0.11010448,inf,inf,inf,inf,1,1,1,1,2,0,2,2,1,1,0
2486094834,21185227,32.387482,-117.07643779999998,8.789734,2.156353,-5.186543,-0.009936107,-0.0021225822,0.0,6.1244135,2.5998871,-0.49005577,-0.63662165,-0.046932053,-0.0029370706,0.062913015,-1.2251234,2.1346252,-3.3556643,0.11844411,18.456049,3.501158,0.49005577,0.34827653,0.2375217,0.18830015,0.10962611,inf,inf,inf,inf,1,1,1,1,2,0,2,2,1,1,0
2486198699,21185227,32.387482,-117.07643779999998,9.45249,2.3804393,-5.257074,-0.009936107,-0.0021225822,0.0,6.380226,2.6914082,-0.47944182,-0.6286974,-0.046932053,-0.0029370706,0.062913015,9.587078,-1.864147,2.268105,0.11891928,18.456049,3.571689,0.47944182,0.35961255,0.23932831,0.1964046,0.110844925,inf,inf,inf,inf,1,1,1,1,2,0,2,2,1,1,0
2486295520,21185227,32.387482,-117.07643779999998,10.093973,2.5903475,-5.3241487,-0.009936107,-0.0021225822,0.0,6.5721,2.7872815,-0.48008758,-0.6329386,-0.046932053,-0.0029370706,0.062913015,1.9749085,1.7649691,-0.88621867,0.119158395,18.456049,3.6387637,0.48008758,0.35011056,0.2389831,0.19373186,0.11050044,inf,inf,inf,inf,1,1,1,1,2,0,2,2,1,1,0
2486399512,21185227,32.387482,-117.07643779999998,10.808114,2.8274634,-5.396606,-0.009936107,-0.0021225822,0.0,6.831197,2.8815663,-0.49453,-0.6507695,-0.046932053,-0.0029370706,0.062913015,1.877381,-1.1361561,-1.7305939,0.12040044,18.456049,3.711221,0.49453,0.3621823,0.23912849,0.2020408,0.11122812,inf,inf,inf,inf,1,1,1,1,2,0,2,2,1,1,0
2486503610,21185227,32.387482,-117.07643779999998,11.548128,3.0627725,-5.4697857,-0.009936107,-0.0021225822,0.0,7.0379224,2.9618492,-0.4679618,-0.62761986,-0.046932053,-0.0029370706,0.062913015,7.9006057,1.0137954,4.32748,0.12239913,18.456049,3.7844007,0.4679618,0.3536382,0.23946477,0.19915454,0.11105942,inf,inf,inf,inf,1,1,1,1,2,0,2,2,1,1,0
2486599588,21185227,32.387482,-117.07643779999998,12.247672,3.296951,-5.534237,-0.009936107,-0.0021225822,0.0,7.2383585,3.017966,-0.4262923,-0.5898649,-0.046932053,-0.0029370706,0.062913015,7.998931,-0.32145005,4.805718,0.12411376,18.456049,3.848852,0.4262923,0.36533397,0.23893005,0.20671254,0.11155566,inf,inf,inf,inf,1,1,1,1,2,0,2,2,1,1,0
2486704403,21185227,32.387482,-117.07643779999998,13.037126,3.5477135,-5.599441,-0.009936107,-0.0021225822,0.0,7.466003,3.1225395,-0.41057283,-0.5756582,-0.046932053,-0.0029370706,0.062913015,6.8443484,-0.7449647,3.6472075,0.12734134,18.456049,3.914056,0.41057283,0.3565289,0.23930523,0.202626,0.11127134,inf,inf,inf,inf,1,1,1,1,2,0,2,2,1,1,0
2486808389,21185227,32.387482,-117.07643779999998,13.841076,3.8185315,-5.6644053,-0.009936107,-0.0021225822,0.0,7.691841,3.229993,-0.42743376,-0.59494823,-0.046932053,-0.0029370706,0.062913015,4.79472,1.435272,0.08925129,0.13007642,18.456049,3.9790204,0.42743376,0.36982074,0.24117458,0.21036828,0.112369895,inf,inf,inf,inf,1,1,1,1,2,0,2,2,1,1,0
2486904407,21185227,32.387482,-117.07643779999998,14.615796,4.064453,-5.718561,-0.009936107,-0.0021225822,0.0,7.9096193,3.3218615,-0.40928274,-0.57204664,-0.046932053,-0.0029370706,0.062913015,4.539503,1.0530788,4.533618,0.13265896,18.456049,4.0331764,0.40928274,0.35981533,0.24085541,0.20525491,0.111854255,inf,inf,inf,inf,1,1,1,1,2,0,2,2,1,1,0
2487008451,21185227,32.387482,-117.07643779999998,15.469483,4.3595357,-5.7767754,-0.009936107,-0.0021225822,0.0,8.096101,3.4392536,-0.41505042,-0.5740453,-0.046932053,-0.0029370706,0.062913015,7.064493,2.1576025,3.0044892,0.13688345,18.456049,4.0913906,0.41505042,0.3736464,0.24265353,0.21308379,0.11292066,inf,inf,inf,inf,1,1,1,1,2,0,2,2,1,1,0
2487109100,21185227,32.387482,-117.07643779999998,16.325321,4.634886,-5.830861,-0.009936107,-0.0021225822,0.0,8.234422,3.4919524,-0.41381162,-0.56704354,-0.046932053,-0.0029370706,0.062913015,-2.8343809,1.1273676,-4.117646,0.14010942,18.456049,4.1454763,0.41381162,0.3641482,0.24281552,0.20767877,0.112505235,inf,inf,inf,inf,1,1,1,1,2,0,2,2,1,1,0
2487213185,21185227,32.387482,-117.07643779999998,17.218016,4.944074,-5.893652,-0.009936107,-0.0021225822,0.0,8.415613,3.5665784,-0.45100033,-0.6049129,-0.046932053,-0.0029370706,0.062913015,3.0217383,1.3312664,1.8862278,0.14283408,18.456049,4.208267,0.45100033,0.35455957,0.24263658,0.20179422,0.11194427,inf,inf,inf,inf,1,1,1,1,2,0,2,2,1,1,0
2487317167,21185227,32.387482,-117.07643779999998,18.137882,5.2502074,-5.9724355,-0.009936107,-0.0021225822,0.0,8.550777,3.6679728,-0.72766757,-0.88414407,-0.046932053,-0.0029370706,0.062913015,0.8776512,2.131037,-3.8320467,0.14826865,18.456049,4.2870502,0.72766757,0.36832774,0.2443434,0.20908596,0.11285956,inf,inf,inf,inf,1,1,1,1,2,0,2,2,1,1,0
2487421100,21185227,32.387482,-117.07643779999998,19.062487,5.583977,-6.092367,-0.009936107,-0.0021225822,0.0,8.646848,3.7674613,-1.1887335,-1.3480529,-0.046932053,-0.0029370706,0.062913015,-0.7231825,6.006513,-5.683839,0.15051906,18.456049,4.4069824,1.1887335,0.35861498,0.24432576,0.20306988,0.11224319,inf,inf,inf,inf,1,1,1,1,2,0,2,2,1,1,0
2487521950,21185227,32.387482,-117.07643779999998,19.977686,5.8972163,-6.246155,-0.009936107,-0.0021225822,0.0,8.720169,3.7711337,-1.4391347,-1.5995862,-0.046932053,-0.0029370706,0.062913015,2.9782958,1.6303588,-1.096596,0.14515573,18.456049,4.56077,1.4391347,0.37280804,0.2459401,0.2115379,0.11315154,inf,inf,inf,inf,1,1,1,1,2,0,2,2,1,1,0
2487626012,21185227,32.387482,-117.07643779999998,20.913189,6.2411366,-6.421219,-0.009936107,-0.0021225822,0.0,8.699772,3.7905283,-1.4497001,-1.6162395,-0.046932053,-0.0029370706,0.062913015,-4.7910967,-0.97154415,-0.032292854,0.13844661,18.456049,4.735834,1.4497001,0.36210227,0.24371748,0.20574164,0.11196739,inf,inf,inf,inf,1,1,1,1,2,0,2,2,1,1,0
2487729961,21185227,32.387482,-117.07643779999998,21.858805,6.569359,-6.592897,-0.009936107,-0.0021225822,0.0,8.747818,3.8097677,-1.4113969,-1.5816629,-0.046932053,-0.0029370706,0.062913015,4.1791983,-0.3958625,2.6181753,0.1345603,18.456049,4.9075117,1.4113969,0.3766663,0.24532153,0.21280918,0.11263181,inf,inf,inf,inf,1,1,1,1,2,0,2,2,1,1,0
2487826795,21185227,32.387482,-117.07643779999998,22.737738,6.890794,-6.7424974,-0.009936107,-0.0021225822,0.0,8.793599,3.8535066,-1.387043,-1.5535682,-0.046932053,-0.0029370706,0.062913015,0.6587585,4.1631165,0.4961921,0.1335442,18.456049,5.0571127,1.387043,0.36501387,0.24277392,0.20474131,0.11118376,inf,inf,inf,inf,1,1,1,1,2,0,2,2,1,1,0
2487930721,21185227,32.387482,-117.07643779999998,23.696281,7.234113,-6.8994374,-0.009936107,-0.0021225822,0.0,8.8589325,3.8390458,-1.384251,-1.5453339,-0.046932053,-0.0029370706,0.062913015,-2.6364422,3.5441375,-1.1258386,0.13311787,18.456049,5.214052,1.384251,0.37972194,0.24262673,0.21105179,0.111402065,inf,inf,inf,inf,1,1,1,1,2,0,2,2,1,1,0
2488034783,21185227,32.387482,-117.07643779999998,24.651094,7.592317,-7.057456,-0.009936107,-0.0021225822,0.0,8.942135,3.8320093,-1.3710629,-1.5291736,-0.046932053,-0.0029370706,0.062913015,4.725184,-4.849367,0.5913003,0.13255857,18.456049,5.3720713,1.3710629,0.36868048,0.24271894,0.20322768,0.11075334,inf,inf,inf,inf,1,1,1,1,2,0,2,2,1,1,0
2488139568,21185227,32.387482,-117.07643779999998,25.619017,7.944767,-7.209862,-0.009936107,-0.0021225822,0.0,8.986185,3.8319912,-1.381469,-1.5300518,-0.046932053,-0.0029370706,0.062913015,-0.64627546,1.1183889,0.7526937,0.1322378,18.456049,5.524477,1.381469,0.38353285,0.24441297,0.20949529,0.1115004,inf,inf,inf,inf,1,1,1,1,2,0,2,2,1,1,0
2488235569,21185227,32.387482,-117.07643779999998,26.502731,8.278515,-7.3452015,-0.009936107,-0.0021225822,0.0,9.008947,3.8123837,-1.4002761,-1.5362016,-0.046932053,-0.0029370706,0.062913015,1.130654,2.0978887,0.02492399,0.1316376,18.456049,5.6598167,1.4002761,0.37089208,0.24369486,0.20121403,0.11063117,inf,inf,inf,inf,1,1,1,1,2,0,2,2,1,1,0
2488339602,21185227,32.387482,-117.07643779999998,27.466402,8.635128,-7.4925423,-0.009936107,-0.0021225822,0.0,9.042712,3.8323784,-1.4536399,-1.5738846,-0.046932053,-0.0029370706,0.062913015,6.564652,0.05690952,1.4843916,0.13030264,18.456049,5.8071575,1.4536399,0.3858832,0.24532366,0.20744379,0.11131012,inf,inf,inf,inf,1,1,1,1,2,0,2,2,1,1,0
2488443592,21185227,32.387482,-117.07643779999998,28.429611,9.0035925,-7.6387043,-0.009936107,-0.0021225822,0.0,9.04991,3.8420653,-1.4676832,-1.5690178,-0.046932053,-0.0029370706,0.062913015,-4.5296774,1.9151227,-2.7254734,0.12941717,18.456049,5.9533195,1.4676832,0.3743203,0.24516672,0.20001121,0.11062748,inf,inf,inf,inf,1,1,1,1,2,0,2,2,1,1,0
2488539518,21185227,32.387482,-117.07643779999998,29.320202,9.349566,-7.7736936,-0.009936107,-0.0021225822,0.0,9.083836,3.8680415,-1.4698116,-1.5559964,-0.046932053,-0.0029370706,0.062913015,-4.2365775,-1.449832,-3.4133432,0.12913285,18.456049,6.0883083,1.4698116,0.38810432,0.24600345,0.2057691,0.111105524,inf,inf,inf,inf,1,1,1,1,2,0,2,2,1,1,0
2488644424,21185227,32.387482,-117.07643779999998,30.289444,9.735476,-7.916579,-0.009936107,-0.0021225822,0.0,9.093058,3.887938,-1.4709955,-1.537293,-0.046932053,-0.0029370706,0.062913015,-3.839935,4.449374,0.8255775,0.12939541,18.456049,6.2311935,1.4709955,0.3761177,0.24398547,0.19802411,0.10996124,inf,inf,inf,inf,1,1,1,1,2,0,2,2,1,1,0
2488748320,21185227,32.387482,-117.07643779999998,31.249361,10.118235,-8.054157,-0.009936107,-0.0021225822,0.0,9.09356,3.901116,-1.5017433,-1.5447007,-0.046932053,-0.0029370706,0.062913015,3.4769142,-2.6690826,1.1884968,0.12851438,18.456049,6.3687725,1.5017433,0.3910385,0.24546537,0.20390955,0.11060915,inf,inf,inf,inf,1,1,1,1,2,0,2,2,1,1,0
2488844317,21185227,32.387482,-117.07643779999998,32.13328,10.4808035,-8.183774,-0.009936107,-0.0021225822,0.0,9.1043825,3.9081,-1.5552294,-1.5785997,-0.046932053,-0.0029370706,0.062913015,7.0827518,-7.4010563,-0.5714768,0.12712505,18.456049,6.4983892,1.5552294,0.37783122,0.24465278,0.19599283,0.10977252,inf,inf,inf,inf,1,1,1,1,2,0,2,2,1,1,0
2488948382,21185227,32.387482,-117.07643779999998,33.094975,10.877683,-8.326784,-0.009936107,-0.0021225822,0.0,9.119839,3.972434,-1.6098579,-1.6111883,-0.046932053,-0.0029370706,0.062913015,-0.22025318,5.1266236,-3.1513784,0.12619291,18.456049,6.6413994,1.6098579,0.39269197,0.2460509,0.20190334,0.110403456,inf,inf,inf,inf,1,1,1,1,2,0,2,2,1,1,0
2489053227,21185227,32.387482,-117.07643779999998,34.06542,11.287106,-8.467867,-0.009936107,-0.0021225822,0.0,9.131818,3.956603,-1.5830618,-1.5607624,-0.046932053,-0.0029370706,0.062913015,2.6853426,-1.3609625,0.19068916,0.12589605,18.456049,6.782482,1.5830618,0.38033047,0.24579854,0.19463523,0.10978366,inf,inf,inf,inf,1,1,1,1,2,0,2,2,1,1,0
2489149161,21185227,32.387482,-117.07643779999998,34.958565,11.663765,-8.591623,-0.009936107,-0.0021225822,0.0,9.158173,3.94938,-1.5884845,-1.5427686,-0.046932053,-0.0029370706,0.062913015,-2.25537,-0.7660953,-0.25262502,0.12616962,18.456049,6.9062386,1.5884845,0.3940117,0.24468936,0.19991805,0.10974884,inf,inf,inf,inf,1,1,1,1,2,0,2,2,1,1,0
2489253100,21185227,32.387482,-117.07643779999998,35.926624,12.074795,-8.723123,-0.009936107,-0.0021225822,0.0,9.191128,3.9209564,-1.588607,-1.5174402,-0.046932053,-0.0029370706,0.062913015,-0.97085696,-5.1624393,-2.174234,0.12617011,18.456049,7.037738,1.588607,0.38167864,0.2445988,0.19260107,0.109189354,inf,inf,inf,inf,1,1,1,1,2,0,2,2,1,1,0
2489357239,21185227,32.387482,-117.07643779999998,36.89539,12.489162,-8.854183,-0.009936107,-0.0021225822,0.0,9.190704,3.9325788,-1.6327074,-1.5366223,-0.046932053,-0.0029370706,0.062913015,-4.1333623,1.390284,-2.1807792,0.12650363,18.456049,7.1687984,1.6327074,0.39643073,0.24605474,0.19818307,0.10985005,inf,inf,inf,inf,1,1,1,1,2,0,2,2,1,1,0
2489462033,21185227,32.387482,-117.07643779999998,37.869167,12.908798,-8.993722,-0.009936107,-0.0021225822,0.0,9.179279,3.9329176,-1.6528549,-1.5362816,-0.046932053,-0.0029370706,0.062913015,2.8570192,6.2592907,3.994778,0.12700228,18.456049,7.308337,1.6528549,0.3838728,0.24404424,0.19109711,0.10881325,inf,inf,inf,inf,1,1,1,1,2,0,2,2,1,1,0
2489557997,21185227,32.387482,-117.07643779999998,38.759865,13.293978,-9.124454,-0.009936107,-0.0021225822,0.0,9.167513,3.9268134,-1.7047404,-1.5728866,-0.046932053,-0.0029370706,0.062913015,0.5499256,2.5253065,-1.4206374,0.15458183,18.456049,7.439069,1.7047404,0.3975425,0.2448264,0.19636382,0.10926377,inf,inf,inf,inf,1,1,1,1,2,0,2,2,1,1,0
2489661946,21185227,32.387482,-117.07643779999998,39.72452,13.718622,-9.275996,-0.009936107,-0.0021225822,0.0,9.161399,3.98883,-1.7889097,-1.6450912,-0.046932053,-0.0029370706,0.062913015,-2.22218,-5.1309443,-2.2028515,0.25224152,18.456049,7.5906115,1.7889097,0.3849481,0.24464607,0.18948032,0.10872532,inf,inf,inf,inf,1,1,1,1,2,0,2,2,1,1,0
2489766047,21185227,32.387482,-117.07643779999998,40.68638,14.157154,-9.437606,-0.009936107,-0.0021225822,0.0,9.087542,4.134169,-1.8623346,-1.7095121,-0.046932053,-0.0029370706,0.062913015,-1.4918036,2.633923,-2.1375976,0.41042107,18.456049,7.752221,1.8623346,0.39955738,0.24424371,0.19509284,0.108919546,inf,inf,inf,inf,1,1,1,1,2,0,2,2,1,1,0
2489862712,21185227,32.387482,-117.07643779999998,41.57063,14.582191,-9.601518,-0.009936107,-0.0021225822,0.0,8.978264,4.2774954,-1.9075327,-1.7540514,-0.046932053,-0.0029370706,0.062913015,-1.3486313,1.7563566,-1.0774081,0.57605094,18.456049,7.916133,1.9075327,0.38588026,0.24344766,0.1881409,0.10825763,inf,inf,inf,inf,1,1,1,1,2,0,2,2,1,1,0
2489966750,21185227,32.387482,-117.07643779999998,42.50368,15.056874,-9.790239,-0.009936107,-0.0021225822,0.0,8.808753,4.445909,-1.8762801,-1.7342842,-0.046932053,-0.0029370706,0.062913015,-3.298393,2.2199054,3.0363863,0.76404864,18.456049,8.104855,1.8762801,0.4005137,0.24490497,0.19367133,0.10895401,inf,inf,inf,inf,1,1,1,1,2,0,2,2,1,1,0
2490070712,21185227,32.387482,-117.07643779999998,43.416885,15.550327,-9.985894,-0.009936107,-0.0021225822,0.0,8.636412,4.612425,-1.8587421,-1.7350833,-0.046932053,-0.0029370706,0.062913015,1.3960919,2.6914713,0.42279482,0.9625375,18.456049,8.300509,1.8587421,0.3878653,0.24295022,0.18695343,0.10800473,inf,inf,inf,inf,1,1,1,1,2,0,2,2,1,1,0
2490167491,21185227,32.387482,-117.07643779999998,44.250328,16.024736,-10.160729,-0.009936107,-0.0021225822,0.0,8.457769,4.743823,-1.8150558,-1.7029594,-0.046932053,-0.0029370706,0.062913015,-8.921272,-0.17970955,-3.0166101,1.1549926,18.456049,8.475345,1.8150558,0.40116814,0.24371389,0.1915799,0.108500086,inf,inf,inf,inf,1,1,1,1,2,0,2,2,1,1,0
2490271565,21185227,32.387482,-117.07643779999998,45.125507,16.553158,-10.33605,-0.009936107,-0.0021225822,0.0,8.326901,4.9259596,-1.7945762,-1.6837759,-0.046932053,-0.0029370706,0.062913015,1.6181511,2.7961118,0.63852423,1.3667821,18.456049,8.650665,1.7945762,0.38834834,0.24187435,0.18463422,0.107601665,inf,inf,inf,inf,1,1,1,1,2,0,2,2,1,1,0
2490375607,21185227,32.387482,-117.07643779999998,45.979355,17.09791,-10.496492,-0.009936107,-0.0021225822,0.0,8.125765,5.024905,-1.7731187,-1.6508231,-0.046932053,-0.0029370706,0.062913015,0.48438883,-2.0052638,0.65139824,1.5805331,18.456049,8.811108,1.7731187,0.40269178,0.24342331,0.18923901,0.108333915,inf,inf,inf,inf,1,1,1,1,2,0,2,2,1,1,0
2490471651,21185227,32.387482,-117.07643779999998,46.74869,17.609978,-10.630532,-0.009936107,-0.0021225822,0.0,7.9084997,5.168733,-1.8178217,-1.6722536,-0.046932053,-0.0029370706,0.062913015,-5.4414687,0.7463631,-3.0755527,1.7772944,18.456049,8.9451475,1.8178217,0.3888476,0.2426945,0.18204768,0.107707985,inf,inf,inf,inf,1,1,1,1,2,0,2,2,1,1,0
2490576338,21185227,32.387482,-117.07643779999998,47.56462,18.177507,-10.774234,-0.009936107,-0.0021225822,0.0,7.665983,5.236822,-1.8718455,-1.6966662,-0.046932053,-0.0029370706,0.062913015,-2.0985737,-4.261222,-4.1314573,1.9904422,18.456049,9.088849,1.8718455,0.4028595,0.24414769,0.1864915,0.10840951,inf,inf,inf,inf,1,1,1,1,2,0,2,2,1,1,0
2490680398,21185227,32.387482,-117.07643779999998,48.35416,18.75529,-10.915935,-0.009936107,-0.0021225822,0.0,7.4430275,5.310568,-1.89449,-1.6888484,-0.046932053,-0.0029370706,0.062913015,-7.484363,2.680426,-2.0914962,2.1983519,18.456049,9.23055,1.89449,0.39004755,0.24224983,0.17997931,0.10751132,inf,inf,inf,inf,1,1,1,1,2,0,2,2,1,1,0
2490776335,21185227,32.387482,-117.07643779999998,49.06111,19.29689,-11.049475,-0.009936107,-0.0021225822,0.0,7.2295227,5.3983097,-1.9358215,-1.7048234,-0.046932053,-0.0029370706,0.062913015,3.0943587,4.847968,0.029040318,2.3884358,18.456049,9.36409,1.9358215,0.40287372,0.24305646,0.18401673,0.10800002,inf,inf,inf,inf,1,1,1,1,2,0,2,2,1,1,0
2490880407,21185227,32.387482,-117.07643779999998,49.809464,19.896984,-11.214452,-0.009936107,-0.0021225822,0.0,7.010215,5.455936,-1.9594482,-1.7205034,-0.046932053,-0.0029370706,0.062913015,1.0130696,3.2025251,1.323654,2.592743,18.456049,9.529067,1.9594482,0.3902029,0.24294437,0.17773898,0.107565075,inf,inf,inf,inf,1,1,1,1,2,0,2,2,1,1,0
2490983522,21185227,32.387482,-117.07643779999998,50.529514,20.493841,-11.399068,-0.009936107,-0.0021225822,0.0,6.8022337,5.491967,-2.0063136,-1.7771119,-0.046932053,-0.0029370706,0.062913015,-2.5441597,1.7270538,-1.369808,2.7953193,18.456049,9.713683,2.0063136,0.40374082,0.24433148,0.18195277,0.108231656,inf,inf,inf,inf,1,1,1,1,2,0,2,2,1,1,0
2491085220,21185227,32.387482,-117.07643779999998,51.212856,21.09343,-11.587713,-0.009936107,-0.0021225822,0.0,6.6015816,5.503103,-2.0261457,-1.8088657,-0.046932053,-0.0029370706,0.062913015,1.670292,-7.996332,-0.6655911,2.9973304,18.456049,9.9023285,2.0261457,0.39056903,0.24390902,0.17573076,0.1077137,inf,inf,inf,inf,1,1,1,1,2,0,2,2,1,1,0
2491181087,21185227,32.387482,-117.07643779999998,51.837795,21.657839,-11.760122,-0.009936107,-0.0021225822,0.0,6.4315295,5.5294766,-2.0095866,-1.794459,-0.046932053,-0.0029370706,0.062913015,5.566931,0.7046443,-0.7195482,-3.0927463,18.456049,10.074738,2.0095866,0.40280572,0.2446063,0.1795895,0.10817097,inf,inf,inf,inf,1,1,1,1,2,0,2,2,1,1,0
2491285224,21185227,32.387482,-117.07643779999998,52.496002,22.279964,-11.9214525,-0.009936107,-0.0021225822,0.0,6.2053366,5.5061913,-2.0123224,-1.7766215,-0.046932053,-0.0029370706,0.062913015,-0.9862006,-3.6574864,-1.1966118,-2.8803592,18.456049,10.236068,2.0123224,0.39028245,0.24269289,0.17390963,0.10721754,inf,inf,inf,inf,1,1,1,1,2,0,2,2,1,1,0
2491385909,21185227,32.387482,-117.07643779999998,53.112736,22.877956,-12.065747,-0.009936107,-0.0021225822,0.0,6.029724,5.4713926,-2.0083554,-1.7429972,-0.046932053,-0.0029370706,0.062913015,-0.37984154,-0.18453643,-1.943741,-2.6695886,18.456049,10.3803625,2.0083554,0.40328676,0.24402648,0.1779309,0.107827865,inf,inf,inf,inf,1,1,1,1,2,0,2,2,1,1,0
2491489899,21185227,32.387482,-117.07643779999998,53.733395,23.493406,-12.204678,-0.009936107,-0.0021225822,0.0,5.852057,5.404261,-2.0400634,-1.7348367,-0.046932053,-0.0029370706,0.062913015,-0.28761464,0.717414,0.49976847,-2.4491882,18.456049,10.519293,2.0400634,0.39081854,0.24388888,0.17276049,0.10733762,inf,inf,inf,inf,1,1,1,1,2,0,2,2,1,1,0
2491594005,21185227,32.387482,-117.07643779999998,54.334583,24.090815,-12.346211,-0.009936107,-0.0021225822,0.0,5.6735644,5.2680397,-2.0674114,-1.7271855,-0.046932053,-0.0029370706,0.062913015,-7.51524,-4.27295,0.7670148,-2.2279284,18.456049,10.660827,2.0674114,0.40322855,0.24497347,0.17700009,0.10792652,inf,inf,inf,inf,1,1,1,1,2,0,2,2,1,1,0
2491697908,21185227,32.387482,-117.07643779999998,54.930817,24.69087,-12.495491,-0.009936107,-0.0021225822,0.0,5.5402555,5.130135,-2.0756066,-1.709266,-0.046932053,-0.0029370706,0.062913015,-0.011493344,-1.2996491,-0.92608535,-2.0099764,18.456049,10.810106,2.0756066,0.3909286,0.24477501,0.17218739,0.10740328,inf,inf,inf,inf,1,1,1,1,2,0,2,2,1,1,0
2491794715,21185227,32.387482,-117.07643779999998,55.471836,25.226454,-12.642649,-0.009936107,-0.0021225822,0.0,5.4468007,4.9805307,-2.0823166,-1.7022119,-0.046932053,-0.0029370706,0.062913015,2.5767832,-3.3701613,-2.1296282,-1.810577,18.456049,10.957264,2.0823166,0.40260607,0.24538508,0.17647307,0.1078128,inf,inf,inf,inf,1,1,1,1,2,0,2,2,1,1,0
2491898711,21185227,32.387482,-117.07643779999998,56.044724,25.804586,-12.796402,-0.009936107,-0.0021225822,0.0,5.35697,4.813418,-2.074715,-1.6786798,-0.046932053,-0.0029370706,0.062913015,-2.4324365,-3.406404,-1.5326711,-1.5971831,18.456049,11.111017,2.074715,0.3904273,0.24338238,0.17180279,0.106821686,inf,inf,inf,inf,1,1,1,1,2,0,2,2,1,1,0
2492002810,21185227,32.387482,-117.07643779999998,56.606907,26.353601,-12.9314575,-0.009936107,-0.0021225822,0.0,5.3054347,4.63786,-2.0454397,-1.6182337,-0.046932053,-0.0029370706,0.062913015,5.964155,-3.4007962,-0.35426116,-1.3824506,18.456049,11.246073,2.0454397,0.40308872,0.24299581,0.17629291,0.10698641,inf,inf,inf,inf,1,1,1,1,2,0,2,2,1,1,0
2492098799,21185227,32.387482,-117.07643779999998,57.11787,26.860605,-13.042509,-0.009936107,-0.0021225822,0.0,5.245847,4.4901023,-2.051374,-1.585984,-0.046932053,-0.0029370706,0.062913015,-1.6416682,0.32190296,-0.721043,-1.1805289,18.456049,11.357124,2.051374,0.3899524,0.24228442,0.17130537,0.10633243,inf,inf,inf,inf,1,1,1,1,2,0,2,2,1,1,0
2492203555,21185227,32.387482,-117.07643779999998,57.66842,27.37876,-13.159725,-0.009936107,-0.0021225822,0.0,5.199976,4.2908406,-2.0569596,-1.5497828,-0.046932053,-0.0029370706,0.062913015,-5.432615,-6.627685,-0.77380896,-0.95744646,18.456049,11.47434,2.0569596,0.40245155,0.24189675,0.17576182,0.10652239,inf,inf,inf,inf,1,1,1,1,2,0,2,2,1,1,0
2492307529,21185227,32.387482,-117.07643779999998,58.204903,27.885891,-13.284138,-0.009936107,-0.0021225822,0.0,5.1844306,4.1252637,-2.0706544,-1.534543,-0.046932053,-0.0029370706,0.062913015,2.8702996,-6.124036,-0.43081862,-0.7360847,18.456049,11.598753,2.0706544,0.3902098,0.24185967,0.17114292,0.106073745,inf,inf,inf,inf,1,1,1,1,2,0,2,2,1,1,0
2492403512,21185227,32.387482,-117.07643779999998,58.69779,28.326645,-13.418668,-0.009936107,-0.0021225822,0.0,5.16764,3.9856577,-2.1010675,-1.5586045,-0.046932053,-0.0029370706,0.062913015,-1.1224433,6.483466,-1.899505,-0.5396117,18.456049,11.733283,2.1010675,0.40174502,0.24257195,0.17521171,0.10654658,inf,inf,inf,inf,1,1,1,1,2,0,2,2,1,1,0
2492507608,21185227,32.387482,-117.07643779999998,59.22567,28.80231,-13.592708,-0.009936107,-0.0021225822,0.0,5.1698728,3.825937,-2.1243072,-1.6004962,-0.046932053,-0.0029370706,0.062913015,1.3150123,-1.099346,-0.32058832,-0.34555534,18.456049,11.907323,2.1243072,0.3897625,0.24250463,0.1706476,0.106126145,inf,inf,inf,inf,1,1,1,1,2,0,2,2,1,1,0
2492612313,21185227,32.387482,-117.07643779999998,59.760014,29.245586,-13.7887,-0.009936107,-0.0021225822,0.0,5.1721087,3.6908572,-2.1190712,-1.6310346,-0.046932053,-0.0029370706,0.062913015,-1.8943256,-0.21956985,-3.3266356,-0.15708682,18.456049,12.103315,2.1190712,0.40230694,0.24207005,0.1749397,0.106325805,inf,inf,inf,inf,1,1,1,1,2,0,2,2,1,1,0
2492708399,21185227,32.387482,-117.07643779999998,60.24259,29.656248,-13.9759245,-0.009936107,-0.0021225822,0.0,5.2499156,3.5463443,-2.0957632,-1.6440778,-0.046932053,-0.0029370706,0.062913015,3.3230195,-2.769147,1.1392055,0.021625685,18.456049,12.29054,2.0957632,0.38943878,0.24144822,0.1697985,0.10574036,inf,inf,inf,inf,1,1,1,1,2,0,2,2,1,1,0
2492812325,21185227,32.387482,-117.07643779999998,60.77616,30.074293,-14.170702,-0.009936107,-0.0021225822,0.0,5.324287,3.4799008,-2.0759275,-1.6527054,-0.046932053,-0.0029370706,0.062913015,-2.086505,5.27737,-0.50381386,0.2234227,18.456049,12.485317,2.0759275,0.37800604,0.23970683,0.16496728,0.104893215,inf,inf,inf,inf,1,1,1,1,2,0,2,2,1,1,0
2492917224,21185227,32.387482,-117.07643779999998,61.311214,30.506983,-14.35422,-0.009936107,-0.0021225822,0.0,5.4141974,3.4191244,-2.031822,-1.6243535,-0.046932053,-0.0029370706,0.062913015,2.038031,0.77077407,1.5475508,0.43450123,18.456049,12.668836,2.031822,0.39003778,0.23942286,0.16865593,0.10515048,inf,inf,inf,inf,1,1,1,1,2,0,2,2,1,1,0
2493013285,21185227,32.387482,-117.07643779999998,61.813297,30.886364,-14.515127,-0.009936107,-0.0021225822,0.0,5.492738,3.4191194,-2.0131202,-1.6149238,-0.046932053,-0.0029370706,0.062913015,-3.488006,-0.77088565,-2.1557305,0.63100976,18.456049,12.829742,2.0131202,0.3777487,0.23885816,0.16334592,0.104582526,inf,inf,inf,inf,1,1,1,1,2,0,2,2,1,1,0
2493117184,21185227,32.387482,-117.07643779999998,62.357174,31.315512,-14.698181,-0.009936107,-0.0021225822,0.0,5.578746,3.4514537,-1.9841702,-1.6054562,-0.046932053,-0.0029370706,0.062913015,0.012703526,2.6192198,0.59123576,0.844674,18.456049,13.012796,1.9841702,0.38985905,0.23870216,0.16691951,0.10486105,inf,inf,inf,inf,1,1,1,1,2,0,2,2,1,1,0
2493221098,21185227,32.387482,-117.07643779999998,62.911392,31.733265,-14.893723,-0.009936107,-0.0021225822,0.0,5.6003504,3.5106237,-1.9889089,-1.6403972,-0.046932053,-0.0029370706,0.062913015,-2.144597,2.831878,0.736623,1.0595008,18.456049,13.208338,1.9889089,0.37858212,0.23876025,0.16196148,0.10447313,inf,inf,inf,inf,1,1,1,1,2,0,2,2,1,1,0
2493321955,21185227,32.387482,-117.07643779999998,63.441715,32.153397,-15.096524,-0.009936107,-0.0021225822,0.0,5.569234,3.5751295,-1.99955,-1.6902589,-0.046932053,-0.0029370706,0.062913015,4.219461,-0.64274925,0.62456465,1.2695814,18.456049,13.4111395,1.99955,0.39062777,0.23853345,0.16554211,0.104733005,inf,inf,inf,inf,1,1,1,1,2,0,2,2,1,1,0
2493417922,21185227,32.387482,-117.07643779999998,63.94428,32.545555,-15.29284,-0.009936107,-0.0021225822,0.0,5.4858813,3.6494079,-2.0206456,-1.7458248,-0.046932053,-0.0029370706,0.062913015,-3.3731215,-3.1305566,-2.9379268,1.4722301,18.456049,13.607455,2.0206456,0.37846562,0.23802064,0.1606134,0.10420245,inf,inf,inf,inf,1,1,1,1,2,0,2,2,1,1,0
2493522037,21185227,32.387482,-117.07643779999998,64.465965,32.977657,-15.506573,-0.009936107,-0.0021225822,0.0,5.3518844,3.697769,-2.0034842,-1.7617835,-0.046932053,-0.0029370706,0.062913015,-1.76537,-4.930089,-0.36912808,1.692343,18.456049,13.821188,2.0034842,0.3901161,0.23927188,0.16426091,0.10489457,inf,inf,inf,inf,1,1,1,1,2,0,2,2,1,1,0
2493626000,21185227,32.387482,-117.07643779999998,64.976814,33.401752,-15.723431,-0.009936107,-0.0021225822,0.0,5.18079,3.7025242,-1.9697481,-1.7622298,-0.046932053,-0.0029370706,0.062913015,-0.46230504,6.9926443,1.650515,1.9117128,18.456049,14.038046,1.9697481,0.37889153,0.23936011,0.1599051,0.10454572,inf,inf,inf,inf,1,1,1,1,2,0,2,2,1,1,0
2493722825,21185227,32.387482,-117.07643779999998,65.430756,33.79657,-15.929052,-0.009936107,-0.0021225822,0.0,4.989957,3.6563993,-1.992901,-1.8186672,-0.046932053,-0.0029370706,0.062913015,-1.6545184,0.5729066,-0.12599288,2.11499,18.456049,14.243668,1.992901,0.38996297,0.23850702,0.16366042,0.10463376,inf,inf,inf,inf,1,1,1,1,2,0,2,2,1,1,0
2493826699,21185227,32.387482,-117.07643779999998,65.90441,34.207886,-16.161995,-0.009936107,-0.0021225822,0.0,4.8358603,3.6056936,-2.0142527,-1.878338,-0.046932053,-0.0029370706,0.062913015,2.970542,2.4014938,2.9081032,2.3310971,18.456049,14.47661,2.0142527,0.37879768,0.23698178,0.15961933,0.10388816,inf,inf,inf,inf,1,1,1,1,2,0,2,2,1,1,0
2493930804,21185227,32.387482,-117.07643779999998,66.359375,34.615322,-16.398832,-0.009936107,-0.0021225822,0.0,4.7242994,3.5682878,-1.9272407,-1.8351159,-0.046932053,-0.0029370706,0.062913015,-3.8818479,7.5097966,1.6778821,2.5392225,18.456049,14.713448,1.9272407,0.3908681,0.2385788,0.16429776,0.10463256,inf,inf,inf,inf,1,1,1,1,2,0,2,2,1,1,0
2494026702,21185227,32.387482,-117.07643779999998,66.777985,34.979492,-16.619205,-0.009936107,-0.0021225822,0.0,4.670547,3.5222106,-1.8683549,-1.8200667,-0.046932053,-0.0029370706,0.062913015,-0.079444475,0.88393486,-0.19723462,2.7337422,18.456049,14.933821,1.8683549,0.37879434,0.23806742,0.1600055,0.104096495,inf,inf,inf,inf,1,1,1,1,2,0,2,2,1,1,0
2494131647,21185227,32.387482,-117.07643779999998,67.22523,35.3704,-16.85212,-0.009936107,-0.0021225822,0.0,4.59923,3.4589293,-1.8200405,-1.812702,-0.046932053,-0.0029370706,0.062913015,0.057896607,-1.6060431,-1.1153915,2.9448674,18.456049,15.166735,1.8200405,0.3907318,0.23790632,0.1643034,0.10435267,inf,inf,inf,inf,1,1,1,1,2,0,2,2,1,1,0
2494235494,21185227,32.387482,-117.07643779999998,67.667015,35.744247,-17.065332,-0.009936107,-0.0021225822,0.0,4.517903,3.3707595,-1.7743208,-1.7897879,-0.046932053,-0.0029370706,0.062913015,-3.1850529,-2.4980001,0.5735782,-3.1297336,18.456049,15.379948,1.7743208,0.37964743,0.23646878,0.16041888,0.10358859,inf,inf,inf,inf,1,1,1,1,2,0,2,2,1,1,0
2494331560,21185227,32.387482,-117.07643779999998,68.055725,36.08915,-17.250586,-0.009936107,-0.0021225822,0.0,4.4158864,3.2671287,-1.7841798,-1.8083054,-0.046932053,-0.0029370706,0.062913015,1.063555,-1.0305445,0.3610085,-2.9354262,18.456049,15.565201,1.7841798,0.39063564,0.23738325,0.16467343,0.104121536,inf,inf,inf,inf,1,1,1,1,2,0,2,2,1,1,0
2494435513,21185227,32.387482,-117.07643779999998,68.46792,36.44597,-17.438744,-0.009936107,-0.0021225822,0.0,4.260486,3.1184213,-1.7680956,-1.7884426,-0.046932053,-0.0029370706,0.062913015,-3.7310584,0.11318163,0.5250264,-2.7222118,18.456049,15.753359,1.7680956,0.37967908,0.23758052,0.1612125,0.10382453,inf,inf,inf,inf,1,1,1,1,2,0,2,2,1,1,0
2494540435,21185227,32.387482,-117.07643779999998,68.86532,36.792023,-17.621092,-0.009936107,-0.0021225822,0.0,4.1197076,2.9634135,-1.7073205,-1.7215652,-0.046932053,-0.0029370706,0.062913015,5.5499487,3.587271,-1.8388375,-2.5066414,18.456049,15.935707,1.7073205,0.3915932,0.23909324,0.16616757,0.10454538,inf,inf,inf,inf,1,1,1,1,2,0,2,2,1,1,0
2494636416,21185227,32.387482,-117.07643779999998,69.22061,37.090458,-17.78371,-0.009936107,-0.0021225822,0.0,3.9851754,2.7797446,-1.6488999,-1.6618563,-0.046932053,-0.0029370706,0.062913015,0.7441152,-5.703286,0.72006536,-2.3199503,18.456049,16.098326,1.6488999,0.37971777,0.23691566,0.16237502,0.10361038,inf,inf,inf,inf,1,1,1,1,2,0,2,2,1,1,0
2494740381,21185227,32.387482,-117.07643779999998,69.5857,37.399258,-17.968025,-0.009936107,-0.0021225822,0.0,3.7989025,2.5543973,-1.6989684,-1.7186848,-0.046932053,-0.0029370706,0.062913015,1.1069784,-1.5518941,-2.8073833,-2.1994982,18.456049,16.28264,1.6989684,0.39172962,0.24018799,0.16705024,0.10477606,inf,inf,inf,inf,1,1,1,1,2,0,2,2,1,1,0
2494844325,21185227,32.387482,-117.07643779999998,69.93591,37.680336,-18.16473,-0.009936107,-0.0021225822,0.0,3.584648,2.3078878,-1.7158054,-1.748627,-0.046932053,-0.0029370706,0.062913015,-9.799042,-3.2370572,3.1466806,-2.1440065,18.456049,16.479345,1.7158054,0.38076672,0.23855601,0.1635466,0.10399851,inf,inf,inf,inf,1,1,1,1,2,0,2,2,1,1,0
2494941134,21185227,32.387482,-117.07643779999998,70.241554,37.928055,-18.347702,-0.009936107,-0.0021225822,0.0,3.4143734,2.144762,-1.6222638,-1.6693476,-0.046932053,-0.0029370706,0.062913015,-8.088939,-3.7002366,1.3927704,-2.1290631,18.456049,16.662317,1.6222638,0.39180985,0.23937334,0.16834854,0.10451575,inf,inf,inf,inf,1,1,1,1,2,0,2,2,1,1,0
2495045271,21185227,32.387482,-117.07643779999998,70.55346,38.17388,-18.5361,-0.009936107,-0.0021225822,0.0,3.220185,1.9650722,-1.5246649,-1.5880516,-0.046932053,-0.0029370706,0.062913015,-2.8462362,-8.746006,3.2256258,-2.133141,18.456049,16.850716,1.5246649,0.38105962,0.23951416,0.1648805,0.10418318,inf,inf,inf,inf,1,1,1,1,2,0,2,2,1,1,0
2495149216,21185227,32.387482,-117.07643779999998,70.843056,38.402447,-18.71288,-0.009936107,-0.0021225822,0.0,2.9972546,1.8408622,-1.4568186,-1.5318668,-0.046932053,-0.0029370706,0.062913015,1.4587535,4.7633047,-2.1875894,-2.1459029,18.456049,17.027494,1.4568186,0.39309105,0.23924485,0.16948865,0.10443106,inf,inf,inf,inf,1,1,1,1,2,0,2,2,1,1,0
2495245115,21185227,32.387482,-117.07643779999998,71.09108,38.597374,-18.862017,-0.009936107,-0.0021225822,0.0,2.752241,1.664435,-1.3980111,-1.4747362,-0.046932053,-0.0029370706,0.062913015,-8.567464,-5.94103,3.927942,-2.1615195,18.456049,17.176632,1.3980111,0.38120687,0.23866376,0.16537343,0.10389489,inf,inf,inf,inf,1,1,1,1,2,0,2,2,1,1,0
2495353886,21185227,32.387482,-117.07643779999998,71.34218,38.805824,-19.023346,-0.009936107,-0.0021225822,0.0,2.4999893,1.5125743,-1.3821282,-1.4560311,-0.046932053,-0.0029370706,0.062913015,-8.056228,-1.9405745,3.2501912,-2.1797566,18.456049,17.337961,1.3821282,0.3942105,0.24074219,0.17069277,0.10477407,inf,inf,inf,inf,1,1,1,1,2,0,2,2,1,1,0
2495450009,21185227,32.387482,-117.07643779999998,71.54001,38.9759,-19.16182,-0.009936107,-0.0021225822,0.0,2.2767606,1.3593818,-1.353039,-1.4237963,-0.046932053,-0.0029370706,0.062913015,-5.8318753,-4.504807,1.5920775,-2.193992,18.456049,17.476435,1.353039,0.38202566,0.23985401,0.16676961,0.10420127,inf,inf,inf,inf,1,1,1,1,2,0,2,2,1,1,0
2495553916,21185227,32.387482,-117.07643779999998,71.73008,39.14508,-19.308783,-0.009936107,-0.0021225822,0.0,2.0497265,1.2109141,-1.3498547,-1.4170903,-0.046932053,-0.0029370706,0.062913015,-0.43982026,-0.8372725,-2.0925736,-2.20568,18.456049,17.623398,1.3498547,0.3941575,0.23950809,0.1720191,0.104428835,inf,inf,inf,inf,1,1,1,1,2,0,2,2,1,1,0
2495649992,21185227,32.387482,-117.07643779999998,71.882126,39.287624,-19.435818,-0.009936107,-0.0021225822,0.0,1.8121493,1.0591345,-1.3533015,-1.4097308,-0.046932053,-0.0029370706,0.062913015,-0.5538889,-3.377671,0.4257857,-2.2124443,18.456049,17.750433,1.3533015,0.38229173,0.23890796,0.16820522,0.10389661,inf,inf,inf,inf,1,1,1,1,2,0,2,2,1,1,0
2495754797,21185227,32.387482,-117.07643779999998,72.01963,39.4313,-19.575027,-0.009936107,-0.0021225822,0.0,1.5462767,0.92935354,-1.3508556,-1.3970428,-0.046932053,-0.0029370706,0.062913015,-0.57548875,1.9485822,-2.1193905,-2.2170846,18.456049,17.889643,1.3508556,0.39449844,0.24034871,0.17359556,0.104604684,inf,inf,inf,inf,1,1,1,1,2,0,2,2,1,1,0
2495858788,21185227,32.387482,-117.07643779999998,72.12971,39.560577,-19.71004,-0.009936107,-0.0021225822,0.0,1.2779522,0.76255316,-1.3433703,-1.3779168,-0.046932053,-0.0029370706,0.062913015,-3.5543816,-1.1604878,1.1480402,-2.2190256,18.456049,18.024654,1.3433703,0.38359827,0.23877768,0.17028731,0.10386225,inf,inf,inf,inf,1,1,1,1,2,0,2,2,1,1,0
2495962717,21185227,32.387482,-117.07643779999998,72.21407,39.675602,-19.840454,-0.009936107,-0.0021225822,0.0,1.0298591,0.59991974,-1.3335495,-1.3536919,-0.046932053,-0.0029370706,0.062913015,-4.774434,-10.1833105,4.150531,-2.221179,18.456049,18.15507,1.3335495,0.39594564,0.23856261,0.17582352,0.1041557,inf,inf,inf,inf,1,1,1,1,2,0,2,2,1,1,0
2496059522,21185227,32.387482,-117.07643779999998,72.26784,39.774208,-19.962206,-0.009936107,-0.0021225822,0.0,0.8513358,0.5156359,-1.3599805,-1.3681283,-0.046932053,-0.0029370706,0.062913015,-4.3936725,-4.630382,0.60305816,-2.2235126,18.456049,18.276821,1.3599805,0.3841152,0.23807088,0.17200528,0.10369262,inf,inf,inf,inf,1,1,1,1,2,0,2,2,1,1,0
2496163568,21185227,32.387482,-117.07643779999998,72.31427,39.864613,-20.092524,-0.009936107,-0.0021225822,0.0,0.7295798,0.43699825,-1.3592418,-1.3549432,-0.046932053,-0.0029370706,0.062913015,4.3171926,0.8671547,-1.0911685,-2.2264807,18.456049,18.407139,1.3592418,0.39656803,0.23788734,0.17755176,0.10400094,inf,inf,inf,inf,1,1,1,1,2,0,2,2,1,1,0
2496267494,21185227,32.387482,-117.07643779999998,72.34977,39.946743,-20.224596,-0.009936107,-0.0021225822,0.0,0.61088115,0.3697089,-1.3625854,-1.3482605,-0.046932053,-0.0029370706,0.062913015,-4.3703303,-0.06391276,-0.028965814,-2.2301369,18.456049,18.539211,1.3625854,0.38542673,0.23811714,0.17371657,0.103728116,inf,inf,inf,inf,1,1,1,1,2,0,2,2,1,1,0
2496371502,21185227,32.387482,-117.07643779999998,72.37518,40.021545,-20.358452,-0.009936107,-0.0021225822,0.0,0.5056778,0.29544246,-1.3855177,-1.363512,-0.046932053,-0.0029370706,0.062913015,1.7939548,-0.62941176,-1.3075229,-2.2341,18.456049,18.673067,1.3855177,0.39801902,0.2379702,0.17916305,0.104030356,inf,inf,inf,inf,1,1,1,1,2,0,2,2,1,1,0
2496468316,21185227,32.387482,-117.07643779999998,72.38488,40.08567,-20.484407,-0.009936107,-0.0021225822,0.0,0.43091592,0.24696082,-1.3837897,-1.3556566,-0.046932053,-0.0029370706,0.062913015,0.31429106,-1.6082258,-0.88438815,-2.2377028,18.456049,18.799023,1.3837897,0.3850124,0.23749152,0.17451608,0.10353528,inf,inf,inf,inf,1,1,1,1,2,0,2,2,1,1,0
2496572434,21185227,32.387482,-117.07643779999998,72.38887,40.143803,-20.616987,-0.009936107,-0.0021225822,0.0,0.3486327,0.17164795,-1.3912461,-1.354259,-0.046932053,-0.0029370706,0.062913015,-2.9259098,0.335203,0.6834111,-2.2415876,18.456049,18.931602,1.3912461,0.39765814,0.23731887,0.17993887,0.10382787,inf,inf,inf,inf,1,1,1,1,2,0,2,2,1,1,0
2496676309,21185227,32.387482,-117.07643779999998,72.38341,40.196857,-20.750761,-0.009936107,-0.0021225822,0.0,0.30073988,0.11948849,-1.4238449,-1.3777337,-0.046932053,-0.0029370706,0.062913015,0.032154873,-2.710931,-1.2167311,-2.245351,18.456049,19.065376,1.4238449,0.38477314,0.2375881,0.17544134,0.103551626,inf,inf,inf,inf,1,1,1,1,2,0,2,2,1,1,0
2496772327,21185227,32.387482,-117.07643779999998,72.378334,40.23666,-20.87647,-0.009936107,-0.0021225822,0.0,0.26756465,0.061012674,-1.4409195,-1.387466,-0.046932053,-0.0029370706,0.062913015,0.46909493,-6.098827,0.11764207,-2.2493057,18.456049,19.191086,1.4409195,0.39650095,0.2368551,0.18042476,0.10367264,inf,inf,inf,inf,1,1,1,1,2,0,2,2,1,1,0
2496877111,21185227,32.387482,-117.07643779999998,72.36792,40.275604,-21.015968,-0.009936107,-0.0021225822,0.0,0.25482553,0.03543493,-1.4217598,-1.3636734,-0.046932053,-0.0029370706,0.062913015,5.622924,3.993368,-0.10011724,-2.2542233,18.456049,19.330584,1.4217598,0.38261142,0.23546842,0.17565145,0.10298181,inf,inf,inf,inf,1,1,1,1,2,0,2,2,1,1,0
2496981238,21185227,32.387482,-117.07643779999998,72.35864,40.30777,-21.1539,-0.009936107,-0.0021225822,0.0,0.21500683,-0.041417442,-1.4357325,-1.373148,-0.046932053,-0.0029370706,0.062913015,-1.8331223,-0.83284247,-0.6101681,-2.2594814,18.456049,19.468515,1.4357325,0.39533785,0.23543134,0.18097654,0.103310235,inf,inf,inf,inf,1,1,1,1,2,0,2,2,1,1,0
2497085177,21185227,32.387482,-117.07643779999998,72.341896,40.334538,-21.295713,-0.009936107,-0.0021225822,0.0,0.19601235,-0.0931023,-1.438906,-1.375123,-0.046932053,-0.0029370706,0.062913015,0.047086157,-2.9987152,-0.14921291,-2.2645686,18.456049,19.610329,1.438906,0.3811652,0.23580983,0.17603748,0.10307581,inf,inf,inf,inf,1,1,1,1,2,0,2,2,1,1,0
2497181116,21185227,32.387482,-117.07643779999998,72.329926,40.34832,-21.42878,-0.009936107,-0.0021225822,0.0,0.16717033,-0.15730187,-1.4633658,-1.399576,-0.046932053,-0.0029370706,0.062913015,-3.2899334,-4.504047,-0.2145749,-2.2681668,18.456049,19.743395,1.4633658,0.3929359,0.23676638,0.18098886,0.10362828,inf,inf,inf,inf,1,1,1,1,2,0,2,2,1,1,0
2497285967,21185227,32.387482,-117.07643779999998,72.30919,40.358818,-21.580002,-0.009936107,-0.0021225822,0.0,0.15963632,-0.18655127,-1.4339995,-1.376142,-0.046932053,-0.0029370706,0.062913015,0.61547154,-1.9058208,0.6840254,-2.2709248,18.456049,19.894617,1.4339995,0.378411,0.2369929,0.17599548,0.1033538,inf,inf,inf,inf,1,1,1,1,2,0,2,2,1,1,0
2497390039,21185227,32.387482,-117.07643779999998,72.29446,40.359516,-21.726095,-0.009936107,-0.0021225822,0.0,0.16608204,-0.22402638,-1.4097053,-1.3564885,-0.046932053,-0.0029370706,0.062913015,0.29996786,1.3330637,1.330667,-2.2728415,18.456049,20.04071,1.4097053,0.3911781,0.2368752,0.18131213,0.1036478,inf,inf,inf,inf,1,1,1,1,2,0,2,2,1,1,0
2497493985,21185227,32.387482,-117.07643779999998,72.27651,40.360355,-21.874624,-0.009936107,-0.0021225822,0.0,0.15410179,-0.27581996,-1.4366256,-1.3899299,-0.046932053,-0.0029370706,0.062913015,-4.06926,-3.3139048,0.68595916,-2.2743683,18.456049,20.18924,1.4366256,0.3767791,0.23554584,0.1762214,0.102982536,inf,inf,inf,inf,1,1,1,1,2,0,2,2,1,1,0
2497589918,21185227,32.387482,-117.07643779999998,72.26931,40.35082,-22.0136,-0.009936107,-0.0021225822,0.0,0.18065627,-0.29479244,-1.4441228,-1.4020121,-0.046932053,-0.0029370706,0.062913015,-0.91882545,2.16812,-0.42567903,-2.2752934,18.456049,20.328215,1.4441228,0.38858852,0.2365182,0.1810713,0.1035336,inf,inf,inf,inf,1,1,1,1,2,0,2,2,1,1,0
2497694787,21185227,32.387482,-117.07643779999998,72.259575,40.341595,-22.164124,-0.009936107,-0.0021225822,0.0,0.2105951,-0.29520813,-1.4480695,-1.4089649,-0.046932053,-0.0029370706,0.062913015,3.427197,1.2762148,-2.0448873,-2.2761738,18.456049,20.478739,1.4480695,0.3739876,0.23517545,0.17607085,0.102882266,inf,inf,inf,inf,1,1,1,1,2,0,2,2,1,1,0
2497798785,21185227,32.387482,-117.07643779999998,72.25811,40.32613,-22.310202,-0.009936107,-0.0021225822,0.0,0.1950002,-0.32376486,-1.4294903,-1.3907368,-0.046932053,-0.0029370706,0.062913015,0.5535655,1.1631366,0.24184641,-2.277513,18.456049,20.624817,1.4294903,0.3868975,0.23684773,0.18134531,0.10362805,inf,inf,inf,inf,1,1,1,1,2,0,2,2,1,1,0
2497894803,21185227,32.387482,-117.07643779999998,72.253815,40.316692,-22.446049,-0.009936107,-0.0021225822,0.0,0.16348062,-0.35934862,-1.4240452,-1.3874766,-0.046932053,-0.0029370706,0.062913015,-2.2345269,-1.8395909,1.4440968,-2.2779675,18.456049,20.760664,1.4240452,0.37146115,0.2365022,0.17586058,0.1032064,inf,inf,inf,inf,1,1,1,1,2,0,2,2,1,1,0
2497995534,21185227,32.387482,-117.07643779999998,72.25446,40.298058,-22.589268,-0.009936107,-0.0021225822,0.0,0.17966205,-0.34309566,-1.4121155,-1.3796934,-0.046932053,-0.0029370706,0.062913015,2.1404335,4.0540237,-1.2918553,-2.2780027,18.456049,20.903883,1.4121155,0.3842771,0.23642251,0.18109176,0.103514016,inf,inf,inf,inf,1,1,1,1,2,0,2,2,1,1,0
2498099591,21185227,32.387482,-117.07643779999998,72.250916,40.278946,-22.735806,-0.009936107,-0.0021225822,0.0,0.14670417,-0.3702331,-1.4137996,-1.3850912,-0.046932053,-0.0029370706,0.062913015,-0.96179605,1.7354236,-0.8541718,-2.2780313,18.456049,21.05042,1.4137996,0.3698479,0.23670408,0.17597035,0.103286564,inf,inf,inf,inf,1,1,1,1,2,0,2,2,1,1,0
2498203572,21185227,32.387482,-117.07643779999998,72.25291,40.251953,-22.885313,-0.009936107,-0.0021225822,0.0,0.14807525,-0.37188405,-1.3983049,-1.3744817,-0.046932053,-0.0029370706,0.062913015,-3.7165015,-6.1593995,1.1352122,-2.2780046,18.456049,21.199928,1.3983049,0.382314,0.23802288,0.18105604,0.10399135,inf,inf,inf,inf,1,1,1,1,2,0,2,2,1,1,0
2498307504,21185227,32.387482,-117.07643779999998,72.25336,40.227463,-23.034876,-0.009936107,-0.0021225822,0.0,0.1499591,-0.356948,-1.405893,-1.3878273,-0.046932053,-0.0029370706,0.062913015,3.0504737,-0.17844145,0.04245055,-2.2779455,18.456049,21.349491,1.405893,0.3676377,0.23658541,0.17580628,0.10330491,inf,inf,inf,inf,1,1,1,1,2,0,2,2,1,1,0
2498404348,21185227,32.387482,-117.07643779999998,72.256775,40.200985,-23.178495,-0.009936107,-0.0021225822,0.0,0.14101993,-0.35346934,-1.4262346,-1.4158733,-0.046932053,-0.0029370706,0.062913015,2.0536506,1.7612606,-1.2907467,-2.2777913,18.456049,21.49311,1.4262346,0.3795056,0.23752968,0.18058968,0.10384277,inf,inf,inf,inf,1,1,1,1,2,0,2,2,1,1,0
2498508405,21185227,32.387482,-117.07643779999998,72.26585,40.173637,-23.332542,-0.009936107,-0.0021225822,0.0,0.1621463,-0.34829715,-1.3735262,-1.370679,-0.046932053,-0.0029370706,0.062913015,-2.5692563,-0.75615215,1.1345588,-2.2771862,18.456049,21.647158,1.3735262,0.36502007,0.2377572,0.17537886,0.10359176,inf,inf,inf,inf,1,1,1,1,2,0,2,2,1,1,0
2498612345,21185227,32.387482,-117.07643779999998,72.27928,40.143497,-23.468782,-0.009936107,-0.0021225822,0.0,0.1505186,-0.33649015,-1.1708862,-1.1702033,-0.046932053,-0.0029370706,0.062913015,-3.7709546,-4.484251,2.3841405,-2.275093,18.456049,21.783398,1.1708862,0.3780017,0.23769501,0.18064547,0.10388776,inf,inf,inf,inf,1,1,1,1,2,0,2,2,1,1,0
2498716318,21185227,32.387482,-117.07643779999998,72.29039,40.106274,-23.582247,-0.009936107,-0.0021225822,0.0,0.13626017,-0.32713166,-0.89348286,-0.8979343,-0.046932053,-0.0029370706,0.062913015,-4.9987807,-2.017951,2.7462935,-2.2705908,18.456049,21.896862,0.89348286,0.3636593,0.2379088,0.17518616,0.10363614,inf,inf,inf,inf,1,1,1,1,2,0,2,2,1,1,0
2498813126,21185227,32.387482,-117.07643779999998,72.30337,40.071934,-23.658237,-0.009936107,-0.0021225822,0.0,0.1505052,-0.29873708,-0.65510535,-0.6605068,-0.046932053,-0.0029370706,0.062913015,4.137838,5.0295434,2.2238235,-2.2351165,18.456049,21.972853,0.65510535,0.3755493,0.2387642,0.1793879,0.104144104,inf,inf,inf,inf,1,1,1,1,2,0,2,2,1,1,0
2498917185,21185227,32.387482,-117.07643779999998,72.31485,40.031223,-23.725294,-0.009936107,-0.0021225822,0.0,0.14537102,-0.29261822,-0.51461,-0.52505267,-0.046932053,-0.0029370706,0.062913015,2.3415592,1.1553559,1.1360615,-2.1461775,18.456049,22.03991,0.51461,0.36130205,0.23885252,0.1735031,0.10383791,inf,inf,inf,inf,1,1,1,1,2,0,2,2,1,1,0
2499021193,21185227,32.387482,-117.07643779999998,72.32837,39.991932,-23.778946,-0.009936107,-0.0021225822,0.0,0.13611384,-0.28682962,-0.39370587,-0.40881246,-0.046932053,-0.0029370706,0.062913015,1.8473917,3.8065295,0.726804,-2.021362,18.456049,22.093561,0.39370587,0.34783724,0.23897299,0.16808316,0.10351535,inf,inf,inf,inf,1,1,1,1,2,0,2,2,1,1,0
2499117106,21185227,32.387482,-117.07643779999998,72.34119,39.950653,-23.822767,-0.009936107,-0.0021225822,0.0,0.08856164,-0.3214146,-0.32849002,-0.35047206,-0.046932053,-0.0029370706,0.062913015,0.91864353,-2.185618,1.4201993,-1.8930087,18.456049,22.137383,0.32849002,0.35906896,0.23974407,0.17242543,0.10401077,inf,inf,inf,inf,1,1,1,1,2,0,2,2,1,1,0
2499221944,21185227,32.387482,-117.07643779999998,72.35194,39.903355,-23.8724,-0.009936107,-0.0021225822,0.0,0.035405964,-0.37101373,-0.2918429,-0.32784945,-0.046932053,-0.0029370706,0.062913015,-2.4635277,-2.9899025,0.9181164,-1.7555063,18.456049,22.187016,0.2918429,0.34564364,0.23809706,0.16717932,0.10324787,inf,inf,inf,inf,1,1,1,1,2,0,2,2,1,1,0
2499326083,21185227,32.387482,-117.07643779999998,72.357254,39.84123,-23.919455,-0.009936107,-0.0021225822,0.0,-0.015163783,-0.47910246,-0.24849124,-0.29785243,-0.046932053,-0.0029370706,0.062913015,1.0974636,-8.511189,3.4242132,-1.6340753,18.456049,22.23407,0.24849124,0.35780814,0.23951994,0.17186616,0.103940845,inf,inf,inf,inf,1,1,1,1,2,0,2,2,1,1,0
2499422044,21185227,32.387482,-117.07643779999998,72.35816,39.777206,-23.957724,-0.009936107,-0.0021225822,0.0,-0.049568668,-0.5773161,-0.24695963,-0.30448225,-0.046932053,-0.0029370706,0.062913015,2.30652,-5.312312,1.0977279,-1.5397294,18.456049,22.272339,0.24695963,0.3697152,0.24034317,0.17624956,0.104417086,inf,inf,inf,inf,1,1,1,1,2,0,2,2,1,1,0
2499525928,21185227,32.387482,-117.07643779999998,72.36324,39.699905,-23.998587,-0.009936107,-0.0021225822,0.0,-0.10013235,-0.72231895,-0.24733785,-0.3125524,-0.046932053,-0.0029370706,0.062913015,-0.16010559,-7.5770698,2.0456784,-1.4671965,18.456049,22.313202,0.24733785,0.35559097,0.23868124,0.17076589,0.1036463,inf,inf,inf,inf,1,1,1,1,2,0,2,2,1,1,0
2499630710,21185227,32.387482,-117.07643779999998,72.3626,39.606693,-24.037235,-0.009936107,-0.0021225822,0.0,-0.12906209,-0.8934228,-0.2529284,-0.3221692,-0.046932053,-0.0029370706,0.062913015,-0.69555604,-7.4457498,1.5408823,-1.4165847,18.456049,22.35185,0.2529284,0.342195,0.23876703,0.1653886,0.10331753,inf,inf,inf,inf,1,1,1,1,2,0,2,2,1,1,0
2499734797,21185227,32.387482,-117.07643779999998,72.36233,39.486816,-24.07814,-0.009936107,-0.0021225822,0.0,-0.15741801,-1.1124344,-0.26461592,-0.33840108,-0.046932053,-0.0029370706,0.062913015,-3.1702516,-4.4577894,-0.51640415,-1.3814516,18.456049,22.392756,0.26461592,0.35441077,0.23860222,0.16987728,0.10358858,inf,inf,inf,inf,1,1,1,1,2,0,2,2,1,1,0
2499830775,21185227,32.387482,-117.07643779999998,72.36073,39.35867,-24.114758,-0.009936107,-0.0021225822,0.0,-0.13953753,-1.2783561,-0.26300177,-0.33941704,-0.046932053,-0.0029370706,0.062913015,0.7378685,-3.8378236,-0.6928705,-1.3586824,18.456049,22.429373,0.26300177,0.3402665,0.23644005,0.16436757,0.102670856,inf,inf,inf,inf,1,1,1,1,2,0,2,2,1,1,0
2499934797,21185227,32.387482,-117.07643779999998,72.3623,39.204903,-24.153652,-0.009936107,-0.0021225822,0.0,-0.1499905,-1.4446,-0.21788359,-0.29841626,-0.046932053,-0.0029370706,0.062913015,0.07314838,-8.627688,4.4397564,-1.3467966,18.456049,22.468267,0.21788359,0.3523388,0.2379325,0.16887213,0.103377715,inf,inf,inf,inf,1,1,1,1,2,0,2,2,1,1,0
2500035585,21185227,32.387482,-117.07643779999998,72.362785,39.038006,-24.189907,-0.009936107,-0.0021225822,0.0,-0.145262,-1.6425838,-0.24077536,-0.32391083,-0.046932053,-0.0029370706,0.062913015,-3.470658,-3.6689703,0.47786382,-1.344347,18.456049,22.504522,0.24077536,0.33919266,0.23806544,0.16370404,0.10307483,inf,inf,inf,inf,1,1,1,1,2,0,2,2,1,1,0
2500139509,21185227,32.387482,-117.07643779999998,72.36387,38.844936,-24.22917,-0.009936107,-0.0021225822,0.0,-0.11510302,-1.8285291,-0.2331352,-0.32023075,-0.046932053,-0.0029370706,0.062913015,2.3398316,-3.3034103,0.79125607,-1.3458077,18.456049,22.543785,0.2331352,0.35088,0.23762468,0.16811647,0.10332062,inf,inf,inf,inf,1,1,1,1,2,0,2,2,1,1,0
2500235490,21185227,32.387482,-117.07643779999998,72.36433,38.64823,-24.264326,-0.009936107,-0.0021225822,0.0,-0.10262571,-2.0387282,-0.22331092,-0.3146736,-0.046932053,-0.0029370706,0.062913015,-0.4231923,-2.3607106,-2.2685833,-1.3487618,18.456049,22.578941,0.22331092,0.33675125,0.2371835,0.16274925,0.10284366,inf,inf,inf,inf,1,1,1,1,2,0,2,2,1,1,0
2500339483,21185227,32.387482,-117.07643779999998,72.36796,38.41135,-24.305372,-0.009936107,-0.0021225822,0.0,-0.07805998,-2.2805052,-0.20157108,-0.30036813,-0.046932053,-0.0029370706,0.062913015,-2.794367,-4.07275,2.7026844,-1.35285,18.456049,22.619987,0.20157108,0.3487374,0.23705961,0.16735968,0.10314455,inf,inf,inf,inf,1,1,1,1,2,0,2,2,1,1,0
2500444413,21185227,32.387482,-117.07643779999998,72.373245,38.147858,-24.347927,-0.009936107,-0.0021225822,0.0,-0.022367464,-2.526431,-0.19718812,-0.3050414,-0.046932053,-0.0029370706,0.062913015,-1.8711452,-7.212829,2.9340007,-1.3564411,18.456049,22.662542,0.19718812,0.335885,0.23562984,0.16265213,0.10247185,inf,inf,inf,inf,1,1,1,1,2,0,2,2,1,1,0
2500540400,21185227,32.387482,-117.07643779999998,72.38207,37.881855,-24.391376,-0.009936107,-0.0021225822,0.0,0.048943456,-2.7145445,-0.2242287,-0.34294784,-0.046932053,-0.0029370706,0.062913015,1.3048218,-2.3227262,-0.36118656,-1.3591406,18.456049,22.705992,0.2242287,0.34703434,0.236619,0.16708632,0.10302454,inf,inf,inf,inf,1,1,1,1,2,0,2,2,1,1,0
2500644316,21185227,32.387482,-117.07643779999998,72.39506,37.572475,-24.439034,-0.009936107,-0.0021225822,0.0,0.105122246,-2.9458082,-0.23789036,-0.365475,-0.046932053,-0.0029370706,0.062913015,0.097768486,-2.4236038,-1.6742216,-1.3607638,18.456049,22.753649,0.23789036,0.33420464,0.23685105,0.1624854,0.1027771,inf,inf,inf,inf,1,1,1,1,2,0,2,2,1,1,0
2500748426,21185227,32.387482,-117.07643779999998,72.410576,37.24124,-24.49002,-0.009936107,-0.0021225822,0.0,0.16178626,-3.1484826,-0.2345504,-0.3735548,-0.046932053,-0.0029370706,0.062913015,-1.9071326,0.8218376,-0.544115,-1.361138,18.456049,22.804636,0.2345504,0.34618893,0.23836328,0.16749786,0.10349165,inf,inf,inf,inf,1,1,1,1,2,0,2,2,1,1,0
2500845140,21185227,32.387482,-117.07643779999998,72.431206,36.91289,-24.535961,-0.009936107,-0.0021225822,0.0,0.23946956,-3.3562074,-0.22206599,-0.3689398,-0.046932053,-0.0029370706,0.062913015,0.52540857,2.8162103,-3.2630677,-1.3593303,18.456049,22.850576,0.22206599,0.33240676,0.23786744,0.16252127,0.10301911,inf,inf,inf,inf,1,1,1,1,2,0,2,2,1,1,0
2500949216,21185227,32.387482,-117.07643779999998,72.45997,36.53266,-24.585386,-0.009936107,-0.0021225822,0.0,0.31340855,-3.6359682,-0.21947218,-0.3755221,-0.046932053,-0.0029370706,0.062913015,-0.89593476,-4.9930644,1.4180921,-1.3565428,18.456049,22.900002,0.21947218,0.34446615,0.23937774,0.16756165,0.10372129,inf,inf,inf,inf,1,1,1,1,2,0,2,2,1,1,0
2501053258,21185227,32.387482,-117.07643779999998,72.4932,36.126938,-24.633205,-0.009936107,-0.0021225822,0.0,0.3813911,-3.8604739,-0.19231136,-0.3565909,-0.046932053,-0.0029370706,0.062913015,1.8854244,2.4038894,-2.0409973,-1.3543736,18.456049,22.94782,0.19231136,0.3317247,0.2377372,0.16305007,0.1029672,inf,inf,inf,inf,1,1,1,1,2,0,2,2,1,1,0
2501149989,21185227,32.387482,-117.07643779999998,72.526955,35.72412,-24.675219,-0.009936107,-0.0021225822,0.0,0.43158856,-4.1030326,-0.1819846,-0.35241598,-0.046932053,-0.0029370706,0.062913015,0.025141979,0.9132513,-1.2700263,-1.3526906,18.456049,22.989834,0.1819846,0.3428003,0.23852389,0.1677384,0.103473544,inf,inf,inf,inf,1,1,1,1,2,0,2,2,1,1,0
2501253881,21185227,32.387482,-117.07643779999998,72.56835,35.26598,-24.71933,-0.009936107,-0.0021225822,0.0,0.5078615,-4.3714266,-0.18238361,-0.35818583,-0.046932053,-0.0029370706,0.062913015,0.3115817,-1.732509,-0.52401847,-1.3514119,18.456049,23.033945,0.18238361,0.33003014,0.23862098,0.1631927,0.10319818,inf,inf,inf,inf,1,1,1,1,2,0,2,2,1,1,0
2501358017,21185227,32.387482,-117.07643779999998,72.614265,34.779644,-24.76174,-0.009936107,-0.0021225822,0.0,0.5883662,-4.6194415,-0.1992702,-0.37707043,-0.046932053,-0.0029370706,0.062913015,2.0563314,-6.6116533,-1.3907049,-1.3502854,18.456049,23.076355,0.1992702,0.34214887,0.23839366,0.16836157,0.103487484,inf,inf,inf,inf,1,1,1,1,2,0,2,2,1,1,0
2501453995,21185227,32.387482,-117.07643779999998,72.66257,34.309345,-24.797935,-0.009936107,-0.0021225822,0.0,0.6493413,-4.833329,-0.18927133,-0.3661039,-0.046932053,-0.0029370706,0.062913015,-0.80064344,-2.1848872,-1.6928486,-1.3492124,18.456049,23.11255,0.18927133,0.32850483,0.23784019,0.16362146,0.10302174,inf,inf,inf,inf,1,1,1,1,2,0,2,2,1,1,0
2501558699,21185227,32.387482,-117.07643779999998,72.72078,33.77078,-24.835781,-0.009936107,-0.0021225822,0.0,0.7090048,-5.082737,-0.13545534,-0.31287602,-0.046932053,-0.0029370706,0.062913015,2.0746744,2.134101,-0.61391294,-1.3484597,18.456049,23.150396,0.13545534,0.34055588,0.2392741,0.1688086,0.10374732,inf,inf,inf,inf,1,1,1,1,2,0,2,2,1,1,0
2501662790,21185227,32.387482,-117.07643779999998,72.785446,33.211956,-24.87038,-0.009936107,-0.0021225822,0.0,0.78456616,-5.3228807,-0.0965848,-0.27472264,-0.046932053,-0.0029370706,0.062913015,5.7126107,-4.0136247,3.119935,-1.3482264,18.456049,23.184996,0.0965848,0.32783046,0.23764569,0.16426632,0.10302549,inf,inf,inf,inf,1,1,1,1,2,0,2,2,1,1,0
2501758715,21185227,32.387482,-117.07643779999998,72.85026,32.674427,-24.893885,-0.009936107,-0.0021225822,0.0,0.81507176,-5.544994,0.0262752,-0.15217142,-0.046932053,-0.0029370706,0.062913015,-4.303749,-0.59325355,-1.9303123,-1.3494679,18.456049,23.2085,-0.0262752,0.33909717,0.23850715,0.16910061,0.10359004,inf,inf,inf,inf,1,1,1,1,2,0,2,2,1,1,0
2501862799,21185227,32.387482,-117.07643779999998,72.92694,32.070988,-24.90287,-0.009936107,-0.0021225822,0.0,0.8785809,-5.7355,0.19473857,0.015821518,-0.046932053,-0.0029370706,0.062913015,-1.3944345,3.0671155,-3.4616158,-1.3476837,18.456049,23.217485,-0.19473857,0.32631403,0.23862477,0.16437817,0.10331824,inf,inf,inf,inf,1,1,1,1,2,0,2,2,1,1,0
2501963523,21185227,32.387482,-117.07643779999998,73.00782,31.46213,-24.895346,-0.009936107,-0.0021225822,0.0,0.96420145,-6.023333,0.3703019,0.19040342,-0.046932053,-0.0029370706,0.062913015,1.8572965,1.8853062,0.23498772,-1.3373934,18.456049,23.20996,-0.3703019,0.33845386,0.23834196,0.16910273,0.103576705,inf,inf,inf,inf,1,1,1,1,2,0,2,2,1,1,0
2502067577,21185227,32.387482,-117.07643779999998,73.09797,30.805767,-24.862537,-0.009936107,-0.0021225822,0.0,1.0352205,-6.2548018,0.59068877,0.41300282,-0.046932053,-0.0029370706,0.062913015,2.645145,-4.6256003,1.8419704,-1.3224385,18.456049,23.177153,-0.59068877,0.32521042,0.23819762,0.16394535,0.10324015,inf,inf,inf,inf,1,1,1,1,2,0,2,2,1,1,0
2502171495,21185227,32.387482,-117.07643779999998,73.19598,30.122234,-24.81115,-0.009936107,-0.0021225822,0.0,1.1229124,-6.5732164,0.7309809,0.55502987,-0.046932053,-0.0029370706,0.062913015,0.5091091,-7.5950184,6.999996,-1.3098199,18.456049,23.125765,-0.7309809,0.33737177,0.23796275,0.1686843,0.10354208,inf,inf,inf,inf,1,1,1,1,2,0,2,2,1,1,0
2502267566,21185227,32.387482,-117.07643779999998,73.29264,29.465532,-24.75521,-0.009936107,-0.0021225822,0.0,1.2126461,-6.805509,0.7547448,0.5817691,-0.046932053,-0.0029370706,0.062913015,3.8345268,-5.3264327,1.9264029,-1.3018689,18.456049,23.069826,-0.7547448,0.32355317,0.2374953,0.16324456,0.10306904,inf,inf,inf,inf,1,1,1,1,2,0,2,2,1,1,0
2502372336,21185227,32.387482,-117.07643779999998,73.406105,28.723324,-24.692982,-0.009936107,-0.0021225822,0.0,1.2912415,-7.0618553,0.7315701,0.56268233,-0.046932053,-0.0029370706,0.062913015,-6.3662405,-4.4581037,-1.7396096,-1.2987905,18.456049,23.007597,-0.7315701,0.33569613,0.23729755,0.1683952,0.103393264,inf,inf,inf,inf,1,1,1,1,2,0,2,2,1,1,0
2502476418,21185227,32.387482,-117.07643779999998,73.527885,27.954943,-24.636127,-0.009936107,-0.0021225822,0.0,1.4101989,-7.3008795,0.67959446,0.5140567,-0.046932053,-0.0029370706,0.062913015,5.6102023,-3.083854,1.9697715,-1.2974501,18.456049,22.950743,-0.67959446,0.32293198,0.23583275,0.16398902,0.102777064,inf,inf,inf,inf,1,1,1,1,2,0,2,2,1,1,0
2502580384,21185227,32.387482,-117.07643779999998,73.661934,27.164335,-24.584507,-0.009936107,-0.0021225822,0.0,1.5020337,-7.528341,0.667408,0.5015434,-0.046932053,-0.0029370706,0.062913015,-4.4757533,-5.6705027,-1.927494,-1.298061,18.456049,22.899122,-0.667408,0.33526263,0.23576593,0.16949207,0.10316885,inf,inf,inf,inf,1,1,1,1,2,0,2,2,1,1,0
2502684361,21185227,32.387482,-117.07643779999998,73.80447,26.338085,-24.53256,-0.009936107,-0.0021225822,0.0,1.6057564,-7.7407975,0.7039275,0.5377336,-0.046932053,-0.0029370706,0.062913015,3.5298843,-2.7083766,1.2957641,-1.2984428,18.456049,22.847176,-0.7039275,0.32273296,0.23604377,0.16512373,0.10299541,inf,inf,inf,inf,1,1,1,1,2,0,2,2,1,1,0
2502781179,21185227,32.387482,-117.07643779999998,73.95057,25.552216,-24.481764,-0.009936107,-0.0021225822,0.0,1.7282223,-7.940875,0.7498542,0.58080536,-0.046932053,-0.0029370706,0.062913015,1.6374434,-3.218571,0.68912,-1.2976774,18.456049,22.79638,-0.7498542,0.33412072,0.23537369,0.1699858,0.10319282,inf,inf,inf,inf,1,1,1,1,2,0,2,2,1,1,0
2502885195,21185227,32.387482,-117.07643779999998,74.11557,24.681503,-24.42585,-0.009936107,-0.0021225822,0.0,1.8279214,-8.176281,0.7560327,0.583524,-0.046932053,-0.0029370706,0.062913015,1.3463467,-2.3293474,-2.9524014,-1.2981229,18.456049,22.740465,-0.7560327,0.32167462,0.2357613,0.16532049,0.103027806,inf,inf,inf,inf,1,1,1,1,2,0,2,2,1,1,0
2502989181,21185227,32.387482,-117.07643779999998,74.29179,23.792149,-24.368732,-0.009936107,-0.0021225822,0.0,1.9183733,-8.388891,0.7752274,0.599898,-0.046932053,-0.0029370706,0.062913015,3.07935,-3.503093,3.3912187,-1.2985079,18.456049,22.683348,-0.7752274,0.3340814,0.23569717,0.17053372,0.10342018,inf,inf,inf,inf,1,1,1,1,2,0,2,2,1,1,0
2503085961,21185227,32.387482,-117.07643779999998,74.46033,22.938978,-24.3116,-0.009936107,-0.0021225822,0.0,1.9931346,-8.590591,0.7693583,0.594755,-0.046932053,-0.0029370706,0.062913015,0.65391064,-2.0060477,1.1594085,-1.298398,18.456049,22.626215,-0.7693583,0.32053304,0.23535255,0.16546221,0.10303551,inf,inf,inf,inf,1,1,1,1,2,0,2,2,1,1,0
2503189956,21185227,32.387482,-117.07643779999998,74.65294,22.006071,-24.254263,-0.009936107,-0.0021225822,0.0,2.0858436,-8.792384,0.72381556,0.548504,-0.046932053,-0.0029370706,0.062913015,4.535316,-3.7658346,0.2806368,-1.2969593,18.456049,22.568878,-0.72381556,0.33298928,0.23689352,0.1706637,0.10379114,inf,inf,inf,inf,1,1,1,1,2,0,2,2,1,1,0
2503293960,21185227,32.387482,-117.07643779999998,74.85065,21.047447,-24.197378,-0.009936107,-0.0021225822,0.0,2.1446462,-8.94602,0.72875774,0.55578846,-0.046932053,-0.0029370706,0.062913015,-2.739207,-5.7931056,3.3426132,-1.2862861,18.456049,22.511993,-0.72875774,0.32039532,0.23712826,0.16595066,0.10354231,inf,inf,inf,inf,1,1,1,1,2,0,2,2,1,1,0
2503389962,21185227,32.387482,-117.07643779999998,75.04309,20.156559,-24.144327,-0.009936107,-0.0021225822,0.0,2.2211392,-9.052103,0.70130384,0.5310027,-0.046932053,-0.0029370706,0.062913015,-1.499499,-0.45121926,-0.38109282,-1.2638333,18.456049,22.458942,-0.70130384,0.33196187,0.23798096,0.17085308,0.10410455,inf,inf,inf,inf,1,1,1,1,2,0,2,2,1,1,0
2503493909,21185227,32.387482,-117.07643779999998,75.25975,19.177908,-24.08311,-0.009936107,-0.0021225822,0.0,2.348286,-9.096125,0.687772,0.5242457,-0.046932053,-0.0029370706,0.062913015,1.0693716,2.0313177,-2.3270946,-1.2237353,18.456049,22.397726,-0.687772,0.3192959,0.23811287,0.16575618,0.10379676,inf,inf,inf,inf,1,1,1,1,2,0,2,2,1,1,0
2503598719,21185227,32.387482,-117.07643779999998,75.4977,18.192314,-24.03331,-0.009936107,-0.0021225822,0.0,2.5085127,-9.15609,0.6231051,0.45893562,-0.046932053,-0.0029370706,0.062913015,1.9689655,-0.06663208,-0.0050925347,-1.1586578,18.456049,22.347925,-0.6231051,0.33187252,0.23956136,0.17082362,0.10448808,inf,inf,inf,inf,1,1,1,1,2,0,2,2,1,1,0
2503694702,21185227,32.387482,-117.07643779999998,75.73271,17.27719,-23.995483,-0.009936107,-0.0021225822,0.0,2.7037091,-9.16593,0.5820839,0.4150086,-0.046932053,-0.0029370706,0.062913015,1.1268115,6.1822796,-3.6967273,-1.0868976,18.456049,22.310099,-0.5820839,0.31846708,0.2390753,0.16558507,0.10399722,inf,inf,inf,inf,1,1,1,1,2,0,2,2,1,1,0
2503798813,21185227,32.387482,-117.07643779999998,76.01096,16.29396,-23.961353,-0.009936107,-0.0021225822,0.0,2.8911712,-9.160844,0.5795978,0.40409297,-0.046932053,-0.0029370706,0.062913015,0.7919574,5.96339,-0.7741461,-0.9963103,18.456049,22.275969,-0.5795978,0.33107466,0.23881549,0.17086673,0.104274355,inf,inf,inf,inf,1,1,1,1,2,0,2,2,1,1,0
2503899526,21185227,32.387482,-117.07643779999998,76.29676,15.332812,-23.928202,-0.009936107,-0.0021225822,0.0,3.1211667,-9.164449,0.61498827,0.43165892,-0.046932053,-0.0029370706,0.062913015,3.4385283,-3.6682894,-0.5573873,-0.8949907,18.456049,22.242817,-0.61498827,0.31836534,0.23889428,0.1657237,0.10394749,inf,inf,inf,inf,1,1,1,1,2,0,2,2,1,1,0
2504003615,21185227,32.387482,-117.07643779999998,76.61964,14.3541355,-23.889929,-0.009936107,-0.0021225822,0.0,3.3311074,-9.0860615,0.6877261,0.4956724,-0.046932053,-0.0029370706,0.062913015,-3.1294491,-1.6065261,0.24323057,-0.76585376,18.456049,22.204544,-0.6877261,0.3310115,0.238621,0.17077293,0.10422171,inf,inf,inf,inf,1,1,1,1,2,0,2,2,1,1,0
2504099599,21185227,32.387482,-117.07643779999998,76.939995,13.438124,-23.842728,-0.009936107,-0.0021225822,0.0,3.558987,-9.007334,0.76873595,0.573228,-0.046932053,-0.0029370706,0.062913015,-1.3362424,7.735103,-0.49984804,-0.6220103,18.456049,22.157343,-0.76873595,0.31725374,0.23954473,0.16523646,0.10416374,inf,inf,inf,inf,1,1,1,1,2,0,2,2,1,1,0
2504203496,21185227,32.387482,-117.07643779999998,77.316605,12.468779,-23.778704,-0.009936107,-0.0021225822,0.0,3.8274767,-8.912853,0.8614279,0.6672768,-0.046932053,-0.0029370706,0.062913015,8.992344,2.1526234,3.7764556,-0.44550574,18.456049,22.093319,-0.8614279,0.3298732,0.2392528,0.1700386,0.10442612,inf,inf,inf,inf,1,1,1,1,2,0,2,2,1,1,0
2504308397,21185227,32.387482,-117.07643779999998,77.7191,11.50212,-23.68422,-0.009936107,-0.0021225822,0.0,4.047433,-8.818973,0.92318666,0.75114685,-0.046932053,-0.0029370706,0.062913015,3.6798596,-6.926813,0.20110041,-0.25164548,18.456049,21.998835,-0.92318666,0.31705686,0.2376326,0.16460355,0.10371472,inf,inf,inf,inf,1,1,1,1,2,0,2,2,1,1,0
2504404319,21185227,32.387482,-117.07643779999998,78.11005,10.633689,-23.583096,-0.009936107,-0.0021225822,0.0,4.221894,-8.689844,0.9482166,0.8041742,-0.046932053,-0.0029370706,0.062913015,-5.0834866,-1.233566,0.06642572,-0.06676569,18.456049,21.89771,-0.9482166,0.3286484,0.23846579,0.16911924,0.10428512,inf,inf,inf,inf,1,1,1,1,2,0,2,2,1,1,0
2504508408,21185227,32.387482,-117.07643779999998,78.559875,9.699901,-23.457916,-0.009936107,-0.0021225822,0.0,4.4446545,-8.542356,0.9148805,0.81350356,-0.046932053,-0.0029370706,0.062913015,6.1699963,5.3118477,1.8019402,0.13497613,18.456049,21.772532,-0.9148805,0.31644288,0.23868391,0.16422021,0.10409522,inf,inf,inf,inf,1,1,1,1,2,0,2,2,1,1,0
2504612397,21185227,32.387482,-117.07643779999998,79.029274,8.791962,-23.331781,-0.009936107,-0.0021225822,0.0,4.5955176,-8.389723,0.84090024,0.78383017,-0.046932053,-0.0029370706,0.062913015,4.2336044,-0.87052387,-0.09971304,0.33493182,18.456049,21.646397,-0.84090024,0.32897988,0.23843434,0.16937467,0.104448244,inf,inf,inf,inf,1,1,1,1,2,0,2,2,1,1,0
2504709121,21185227,32.387482,-117.07643779999998,79.480034,7.9551415,-23.211466,-0.009936107,-0.0021225822,0.0,4.7288585,-8.222321,0.77529144,0.76427764,-0.046932053,-0.0029370706,0.062913015,3.1248202,-1.3209192,2.4454699,0.5247009,18.456049,21.526081,-0.77529144,0.31568685,0.23794772,0.16436306,0.10404595,inf,inf,inf,inf,1,1,1,1,2,0,2,2,1,1,0
2504813199,21185227,32.387482,-117.07643779999998,79.97814,7.087922,-23.089489,-0.009936107,-0.0021225822,0.0,4.8478456,-7.998002,0.7246285,0.75622934,-0.046932053,-0.0029370706,0.062913015,0.116924845,-1.7261847,-1.4938787,0.73022515,18.456049,21.404104,-0.7246285,0.32818252,0.23774597,0.16973841,0.10440704,inf,inf,inf,inf,1,1,1,1,2,0,2,2,1,1,0
2504917210,21185227,32.387482,-117.07643779999998,80.487854,6.2402253,-22.974598,-0.009936107,-0.0021225822,0.0,4.9199104,-7.786396,0.7031776,0.76786184,-0.046932053,-0.0029370706,0.062913015,-2.4714413,1.483228,-2.806463,0.9229417,18.456049,21.289213,-0.7031776,0.31592125,0.23633385,0.16522984,0.1037825,inf,inf,inf,inf,1,1,1,1,2,0,2,2,1,1,0
2505013192,21185227,32.387482,-117.07643779999998,80.96445,5.487691,-22.886366,-0.009936107,-0.0021225822,0.0,5.005888,-7.5785785,0.65409917,0.7312673,-0.046932053,-0.0029370706,0.062913015,-4.3869386,1.2543161,-2.0770364,1.0971168,18.456049,21.200981,-0.65409917,0.3274275,0.23723833,0.17003804,0.104396835,inf,inf,inf,inf,1,1,1,1,2,0,2,2,1,1,0
2505117900,21185227,32.387482,-117.07643779999998,81.49707,4.677211,-22.818146,-0.009936107,-0.0021225822,0.0,5.142247,-7.3581862,0.6098018,0.67735654,-0.046932053,-0.0029370706,0.062913015,4.4302254,4.7560296,0.72955966,1.2855399,18.456049,21.132761,-0.6098018,0.31507677,0.23583977,0.16538012,0.10374852,inf,inf,inf,inf,1,1,1,1,2,0,2,2,1,1,0
2505222015,21185227,32.387482,-117.07643779999998,82.034355,3.9008982,-22.762926,-0.009936107,-0.0021225822,0.0,5.1997776,-7.173846,0.59697247,0.6472208,-0.046932053,-0.0029370706,0.062913015,-5.7084837,1.7483985,-1.5005763,1.4771541,18.456049,21.077541,-0.59697247,0.30338424,0.23605262,0.16101961,0.1034959,inf,inf,inf,inf,1,1,1,1,2,0,2,2,1,1,0
2505317972,21185227,32.387482,-117.07643779999998,82.542885,3.1968312,-22.708973,-0.009936107,-0.0021225822,0.0,5.2866235,-6.956101,0.569871,0.6107695,-0.046932053,-0.0029370706,0.062913015,2.3381872,1.3058707,-1.4546398,1.6567491,18.456049,21.023588,-0.569871,0.31433496,0.23866223,0.16593637,0.104491726,inf,inf,inf,inf,1,1,1,1,2,0,2,2,1,1,0
2505422021,21185227,32.387482,-117.07643779999998,83.09342,2.4644122,-22.63776,-0.009936107,-0.0021225822,0.0,5.2903028,-6.7493696,0.5245971,0.5738594,-0.046932053,-0.0029370706,0.062913015,-2.2702806,3.2648406,-0.70447195,1.8508111,18.456049,20.952375,-0.5245971,0.30243734,0.23875792,0.161357,0.10413312,inf,inf,inf,inf,1,1,1,1,2,0,2,2,1,1,0
2505526799,21185227,32.387482,-117.07643779999998,83.65234,1.7371503,-22.542948,-0.009936107,-0.0021225822,0.0,5.281491,-6.570607,0.5202919,0.6031782,-0.046932053,-0.0029370706,0.062913015,-2.7680402,3.4327168,2.183793,2.0531733,18.456049,20.857563,-0.5202919,0.31416056,0.23849043,0.16666505,0.10441403,inf,inf,inf,inf,1,1,1,1,2,0,2,2,1,1,0
2505622718,21185227,32.387482,-117.07643779999998,84.15686,1.0942812,-22.439415,-0.009936107,-0.0021225822,0.0,5.2418704,-6.4055066,0.4944204,0.62134546,-0.046932053,-0.0029370706,0.062913015,3.95691,-0.39085275,-1.2447574,2.246563,18.456049,20.75403,-0.4944204,0.30134833,0.23793015,0.16174659,0.10380674,inf,inf,inf,inf,1,1,1,1,2,0,2,2,1,1,0
2505726717,21185227,32.387482,-117.07643779999998,84.702156,0.4036537,-22.31744,-0.009936107,-0.0021225822,0.0,5.131478,-6.1871314,0.4573455,0.639145,-0.046932053,-0.0029370706,0.062913015,-9.296826,1.8559842,-0.5366588,2.4630501,18.456049,20.632055,-0.4573455,0.31308928,0.23939538,0.1668224,0.10443973,inf,inf,inf,inf,1,1,1,1,2,0,2,2,1,1,0
2505830810,21185227,32.387482,-117.07643779999998,85.232895,-0.25804204,-22.205135,-0.009936107,-0.0021225822,0.0,4.9886947,-5.9783525,0.38109085,0.6066908,-0.046932053,-0.0029370706,0.062913015,-3.2909667,-3.1368942,-2.4304762,2.6821907,18.456049,20.51975,-0.38109085,0.30122092,0.23773564,0.16218828,0.103555076,inf,inf,inf,inf,1,1,1,1,2,0,2,2,1,1,0
2505931511,21185227,32.387482,-117.07643779999998,85.7438,-0.89139414,-22.106804,-0.009936107,-0.0021225822,0.0,4.8297515,-5.8222356,0.3244374,0.58429796,-0.046932053,-0.0029370706,0.062913015,-7.871666,-3.3790903,2.4262247,2.8882544,18.456049,20.42142,-0.3244374,0.3128773,0.23916985,0.1672937,0.104229875,inf,inf,inf,inf,1,1,1,1,2,0,2,2,1,1,0
2506035607,21185227,32.387482,-117.07643779999998,86.25597,-1.5265503,-22.013885,-0.009936107,-0.0021225822,0.0,4.7337823,-5.710974,0.32566217,0.61194026,-0.046932053,-0.0029370706,0.062913015,1.1957862,0.88896066,-1.3074977,3.1022358,18.456049,20.3285,-0.32566217,0.30073845,0.23735286,0.16246174,0.10337646,inf,inf,inf,inf,1,1,1,1,2,0,2,2,1,1,0
2506139508,21185227,32.387482,-117.07643779999998,86.76478,-2.1629322,-21.913984,-0.009936107,-0.0021225822,0.0,4.5691257,-5.6503897,0.37272644,0.68762046,-0.046932053,-0.0029370706,0.062913015,-7.078458,-5.9299307,-0.46769738,-2.966265,18.456049,20.2286,-0.37272644,0.31239414,0.23717134,0.16731846,0.10361622,inf,inf,inf,inf,1,1,1,1,2,0,2,2,1,1,0
2506235490,21185227,32.387482,-117.07643779999998,87.21774,-2.7356796,-21.810246,-0.009936107,-0.0021225822,0.0,4.4076314,-5.5670023,0.35402614,0.7009408,-0.046932053,-0.0029370706,0.062913015,-0.79665893,-1.705726,-2.6480572,-2.7668145,18.456049,20.12486,-0.35402614,0.2998347,0.23837018,0.16169794,0.103397705,inf,inf,inf,inf,1,1,1,1,2,0,2,2,1,1,0
2506336461,21185227,32.387482,-117.07643779999998,87.688255,-3.33813,-21.682333,-0.009936107,-0.0021225822,0.0,4.141519,-5.4779534,0.24845186,0.64800227,-0.046932053,-0.0029370706,0.062913015,-3.5557637,-0.27596027,-2.5521133,-2.5550501,18.456049,19.996948,-0.24845186,0.3114409,0.23814051,0.16580732,0.10356731,inf,inf,inf,inf,1,1,1,1,2,0,2,2,1,1,0
2506440394,21185227,32.387482,-117.07643779999998,88.14591,-3.9379508,-21.547709,-0.009936107,-0.0021225822,0.0,3.9076865,-5.3507013,0.08710792,0.555352,-0.046932053,-0.0029370706,0.062913015,-11.484784,14.880158,-3.4073002,-2.3690283,18.456049,19.862324,-0.08710792,0.29949608,0.23803304,0.16045848,0.10314127,inf,inf,inf,inf,1,1,1,1,2,0,2,2,1,1,0
2506544322,21185227,32.387482,-117.07643779999998,88.601555,-4.531152,-21.425156,-0.009936107,-0.0021225822,0.0,3.8305957,-5.3401775,0.24259181,0.76070964,-0.046932053,-0.0029370706,0.062913015,-5.152207,0.04552523,2.3162758,-2.1788886,18.456049,19.73977,-0.24259181,0.31109226,0.23778805,0.16508806,0.10337273,inf,inf,inf,inf,1,1,1,1,2,0,2,2,1,1,0
2506641193,21185227,32.387482,-117.07643779999998,89.02385,-5.074846,-21.311884,-0.009936107,-0.0021225822,0.0,3.8315241,-5.283313,0.3917782,0.9334187,-0.046932053,-0.0029370706,0.062913015,-0.5629609,1.9905391,0.07408385,-1.9957939,18.456049,19.6265,-0.3917782,0.29863518,0.2372542,0.15986018,0.10224493,inf,inf,inf,inf,1,1,1,1,2,0,2,2,1,1,0
2506745183,21185227,32.387482,-117.07643779999998,89.489456,-5.6577573,-21.20533,-0.009936107,-0.0021225822,0.0,3.9009252,-5.2265177,0.47171208,1.0077633,-0.046932053,-0.0029370706,0.062913015,2.524404,4.801607,-1.4667679,-1.8258651,18.456049,19.519945,-0.47171208,0.3102637,0.23859039,0.16360667,0.10105576,inf,inf,inf,inf,1,1,1,1,2,0,2,2,1,1,0
2506849194,21185227,32.387482,-117.07643779999998,89.95845,-6.2270265,-21.131166,-0.009936107,-0.0021225822,0.0,3.9134293,-5.143369,0.40614215,0.90670097,-0.046932053,-0.0029370706,0.062913015,-0.2633263,4.6982293,-4.0533977,-1.6634299,18.456049,19.445782,-0.40614215,0.29874185,0.2386032,0.15832327,0.098997205,inf,inf,inf,inf,1,1,1,1,2,0,2,2,1,1,0
2506945109,21185227,32.387482,-117.07643779999998,90.39376,-6.7393746,-21.083052,-0.009936107,-0.0021225822,0.0,3.8613186,-5.056936,0.33264086,0.7911509,-0.046932053,-0.0029370706,0.062913015,-3.5224202,2.2122016,-0.41400087,-1.5074863,18.456049,19.397667,-0.33264086,0.3094846,0.2390676,0.16250038,0.09792772,inf,inf,inf,inf,1,1,1,1,2,0,2,2,1,1,0
2507049904,21185227,32.387482,-117.07643779999998,90.85854,-7.282683,-21.051895,-0.009936107,-0.0021225822,0.0,3.7679634,-4.915606,0.27526987,0.6810498,-0.046932053,-0.0029370706,0.062913015,-2.5058177,1.6721599,-0.7308051,-1.3368138,18.456049,19.36651,-0.27526987,0.29829594,0.23717393,0.15820819,0.0957806,inf,inf,inf,inf,1,1,1,1,2,0,2,2,1,1,0
2507153995,21185227,32.387482,-117.07643779999998,91.31302,-7.807831,-21.02326,-0.009936107,-0.0021225822,0.0,3.660091,-4.7926645,0.243105,0.6053697,-0.046932053,-0.0029370706,0.062913015,-0.76488537,4.0465436,-0.09493496,-1.1654892,18.456049,19.337875,-0.243105,0.31001914,0.23807926,0.16327813,0.09503195,inf,inf,inf,inf,1,1,1,1,2,0,2,2,1,1,0
2507249989,21185227,32.387482,-117.07643779999998,91.71536,-8.273211,-20.989464,-0.009936107,-0.0021225822,0.0,3.5335746,-4.616985,0.26051998,0.5949596,-0.046932053,-0.0029370706,0.062913015,0.17441237,2.7507696,1.0289457,-1.0064086,18.456049,19.30408,-0.26051998,0.29845518,0.23723777,0.1587321,0.093549065,inf,inf,inf,inf,1,1,1,1,2,0,2,2,1,1,0
2507353981,21185227,32.387482,-117.07643779999998,92.146225,-8.754392,-20.951159,-0.009936107,-0.0021225822,0.0,3.3445885,-4.3982973,0.25646636,0.5653449,-0.046932053,-0.0029370706,0.062913015,-5.397695,2.3505635,0.77479035,-0.8567792,18.456049,19.265774,-0.25646636,0.31023285,0.23798184,0.1636352,0.09304837,inf,inf,inf,inf,1,1,1,1,2,0,2,2,1,1,0
2507458716,21185227,32.387482,-117.07643779999998,92.55248,-9.209947,-20.914879,-0.009936107,-0.0021225822,0.0,3.1354506,-4.126394,0.25801533,0.54252815,-0.046932053,-0.0029370706,0.062913015,-0.0765296,6.6278067,0.18404697,-0.725617,18.456049,19.229494,-0.25801533,0.29970574,0.23755683,0.15926796,0.091932625,inf,inf,inf,inf,1,1,1,1,2,0,2,2,1,1,0
2507554726,21185227,32.387482,-117.07643779999998,92.91032,-9.601267,-20.880749,-0.009936107,-0.0021225822,0.0,2.9267385,-3.8705008,0.24101579,0.50578415,-0.046932053,-0.0029370706,0.062913015,-2.9325764,2.981161,-4.297927,-0.6418598,18.456049,19.195364,-0.24101579,0.31063154,0.23595028,0.16399167,0.09125377,inf,inf,inf,inf,1,1,1,1,2,0,2,2,1,1,0
2507658784,21185227,32.387482,-117.07643779999998,93.27087,-9.991524,-20.864223,-0.009936107,-0.0021225822,0.0,2.6905038,-3.5914204,0.1900052,0.42003632,-0.046932053,-0.0029370706,0.062913015,-4.8820853,-1.6928488,-1.6992949,-0.6081614,18.456049,19.178839,-0.1900052,0.30014038,0.23556127,0.15985277,0.09046457,inf,inf,inf,inf,1,1,1,1,2,0,2,2,1,1,0
2507762721,21185227,32.387482,-117.07643779999998,93.61566,-10.347075,-20.863268,-0.009936107,-0.0021225822,0.0,2.516888,-3.3000488,0.18777455,0.37442935,-0.046932053,-0.0029370706,0.062913015,5.588621,7.541964,-1.3604119,-0.6021857,18.456049,19.177883,-0.18777455,0.312045,0.23607586,0.16531287,0.090554416,inf,inf,inf,inf,1,1,1,1,2,0,2,2,1,1,0
2507859599,21185227,32.387482,-117.07643779999998,93.9145,-10.650054,-20.870674,-0.009936107,-0.0021225822,0.0,2.3262515,-3.0787024,0.161528,0.30654863,-0.046932053,-0.0029370706,0.062913015,-0.84862494,2.5352423,-0.88238096,-0.6086202,18.456049,19.18529,-0.161528,0.30047026,0.23505732,0.1608796,0.08993565,inf,inf,inf,inf,1,1,1,1,2,0,2,2,1,1,0
2507963607,21185227,32.387482,-117.07643779999998,94.221054,-10.947219,-20.885332,-0.009936107,-0.0021225822,0.0,2.138642,-2.8177366,0.16797142,0.26735583,-0.046932053,-0.0029370706,0.062913015,-3.2849934,1.526158,-1.2075037,-0.61981547,18.456049,19.199947,-0.16797142,0.31245136,0.23391198,0.16625988,0.08993825,inf,inf,inf,inf,1,1,1,1,2,0,2,2,1,1,0
2508067601,21185227,32.387482,-117.07643779999998,94.50962,-11.213887,-20.908752,-0.009936107,-0.0021225822,0.0,1.9919448,-2.5830207,0.17680587,0.22746578,-0.046932053,-0.0029370706,0.062913015,2.326359,-0.8335242,0.4513859,-0.6346312,18.456049,19.223368,-0.17680587,0.30192596,0.23348723,0.16215442,0.089683734,inf,inf,inf,inf,1,1,1,1,2,0,2,2,1,1,0
2508163567,21185227,32.387482,-117.07643779999998,94.758995,-11.435139,-20.932,-0.009936107,-0.0021225822,0.0,1.8318784,-2.3574672,0.21556775,0.22154966,-0.046932053,-0.0029370706,0.062913015,-0.08807388,5.5554614,0.7553865,-0.6477793,18.456049,19.246614,-0.21556775,0.3130981,0.23343313,0.16712213,0.0901141,inf,inf,inf,inf,1,1,1,1,2,0,2,2,1,1,0
2508268316,21185227,32.387482,-117.07643779999998,95.01378,-11.649044,-20.957415,-0.009936107,-0.0021225822,0.0,1.6699113,-2.1234775,0.25349912,0.21284167,-0.046932053,-0.0029370706,0.062913015,1.9499791,1.1316664,-3.1130326,-0.65934837,18.456049,19.27203,-0.25349912,0.30245474,0.23146342,0.16278094,0.089754716,inf,inf,inf,inf,1,1,1,1,2,0,2,2,1,1,0
2508372312,21185227,32.387482,-117.07643779999998,95.24991,-11.832996,-20.980076,-0.009936107,-0.0021225822,0.0,1.5159477,-1.8945209,0.27187482,0.18935373,-0.046932053,-0.0029370706,0.062913015,-0.7193886,-3.225623,0.4189833,-0.6669092,18.456049,19.294691,-0.27187482,0.31463778,0.23045336,0.16800833,0.09022749,inf,inf,inf,inf,1,1,1,1,2,0,2,2,1,1,0
2508468338,21185227,32.387482,-117.07643779999998,95.45597,-11.9767275,-20.9949,-0.009936107,-0.0021225822,0.0,1.368781,-1.6681812,0.31650886,0.2030345,-0.046932053,-0.0029370706,0.062913015,-0.58121735,2.3274834,-1.0987929,-0.670162,18.456049,19.309515,-0.31650886,0.30314133,0.22969279,0.16327956,0.090225026,inf,inf,inf,inf,1,1,1,1,2,0,2,2,1,1,0
2508572473,21185227,32.387482,-117.07643779999998,95.65706,-12.108596,-21.00324,-0.009936107,-0.0021225822,0.0,1.1972173,-1.4272815,0.3845823,0.24327889,-0.046932053,-0.0029370706,0.062913015,-1.8053243,2.6221755,-0.08649292,-0.6710939,18.456049,19.317856,-0.3845823,0.3154051,0.23026593,0.16858245,0.09118233,inf,inf,inf,inf,1,1,1,1,2,0,2,2,1,1,0
2508677194,21185227,32.387482,-117.07643779999998,95.838806,-12.212873,-21.000088,-0.009936107,-0.0021225822,0.0,1.0054606,-1.2024485,0.40935153,0.24868703,-0.046932053,-0.0029370706,0.062913015,-0.74523145,-1.8074528,-1.9687197,-0.6708827,18.456049,19.314703,-0.40935153,0.30451947,0.22851841,0.16401424,0.091168605,inf,inf,inf,inf,1,1,1,1,2,0,2,2,1,1,0
2508773115,21185227,32.387482,-117.07643779999998,95.98588,-12.287413,-20.988508,-0.009936107,-0.0021225822,0.0,0.849867,-1.0108246,0.4596746,0.2885579,-0.046932053,-0.0029370706,0.062913015,-2.2818222,2.607702,1.4231594,-0.6689234,18.456049,19.303123,-0.4596746,0.31600928,0.22874017,0.16889198,0.09212077,inf,inf,inf,inf,1,1,1,1,2,0,2,2,1,1,0
2508877181,21185227,32.387482,-117.07643779999998,96.13176,-12.342219,-20.96879,-0.009936107,-0.0021225822,0.0,0.7105465,-0.83013654,0.49450672,0.31610718,-0.046932053,-0.0029370706,0.062913015,0.79118687,1.0791401,0.5213775,-0.66461664,18.456049,19.283405,-0.49450672,0.30520397,0.22856492,0.16431764,0.09249286,inf,inf,inf,inf,1,1,1,1,2,0,2,2,1,1,0
2508981217,21185227,32.387482,-117.07643779999998,96.25626,-12.382151,-20.93767,-0.009936107,-0.0021225822,0.0,0.5844538,-0.68323123,0.5190589,0.34221435,-0.046932053,-0.0029370706,0.062913015,0.5673064,1.0470338,-0.6312332,-0.6603391,18.456049,19.252285,-0.5190589,0.31766087,0.22925986,0.16951323,0.093677364,inf,inf,inf,inf,1,1,1,1,2,0,2,2,1,1,0
2509077954,21185227,32.387482,-117.07643779999998,96.36373,-12.396692,-20.90012,-0.009936107,-0.0021225822,0.0,0.48717472,-0.5613259,0.530768,0.36117825,-0.046932053,-0.0029370706,0.062913015,-4.5183897,5.241465,0.36072412,-0.6597873,18.456049,19.214735,-0.530768,0.30583468,0.22859429,0.16440532,0.093895,inf,inf,inf,inf,1,1,1,1,2,0,2,2,1,1,0
2509182017,21185227,32.387482,-117.07643779999998,96.46411,-12.403929,-20.857426,-0.009936107,-0.0021225822,0.0,0.46271932,-0.4906136,0.52728766,0.36692652,-0.046932053,-0.0029370706,0.062913015,4.466134,-2.1286922,1.5160756,-0.6613672,18.456049,19.17204,-0.52728766,0.31842738,0.22942096,0.16941626,0.09512893,inf,inf,inf,inf,1,1,1,1,2,0,2,2,1,1,0
2509285967,21185227,32.387482,-117.07643779999998,96.56367,-12.397903,-20.815382,-0.009936107,-0.0021225822,0.0,0.3898626,-0.41163498,0.509433,0.3576968,-0.046932053,-0.0029370706,0.062913015,-0.008105596,0.5922893,-0.9554036,-0.6660372,18.456049,19.129997,-0.509433,0.30735946,0.22933598,0.16442019,0.095519,inf,inf,inf,inf,1,1,1,1,2,0,2,2,1,1,0
2509381930,21185227,32.387482,-117.07643779999998,96.64513,-12.388688,-20.769938,-0.009936107,-0.0021225822,0.0,0.3225772,-0.34525698,0.5104915,0.37215436,-0.046932053,-0.0029370706,0.062913015,0.50668645,-2.7280443,-2.2198212,-0.6724607,18.456049,19.084553,-0.5104915,0.31894767,0.22819714,0.16890936,0.0962735,inf,inf,inf,inf,1,1,1,1,2,0,2,2,1,1,0
2509486794,21185227,32.387482,-117.07643779999998,96.73148,-12.365498,-20.712727,-0.009936107,-0.0021225822,0.0,0.2409205,-0.2743401,0.5423658,0.4216515,-0.046932053,-0.0029370706,0.062913015,-4.390398,6.8727236,-2.6313148,-0.6805073,18.456049,19.027342,-0.5423658,0.30795416,0.22822459,0.16386403,0.0966718,inf,inf,inf,inf,1,1,1,1,2,0,2,2,1,1,0
2509590800,21185227,32.387482,-117.07643779999998,96.801704,-12.344948,-20.654661,-0.009936107,-0.0021225822,0.0,0.18598875,-0.26007935,0.5464506,0.44126543,-0.046932053,-0.0029370706,0.062913015,1.7801642,2.7635033,-2.6752586,-0.6891821,18.456049,18.969276,-0.5464506,0.32066128,0.2278436,0.1686972,0.097685084,inf,inf,inf,inf,1,1,1,1,2,0,2,2,1,1,0
2509686779,21185227,32.387482,-117.07643779999998,96.86846,-12.320461,-20.602854,-0.009936107,-0.0021225822,0.0,0.1539814,-0.2762794,0.5188715,0.4258839,-0.046932053,-0.0029370706,0.062913015,-0.29547796,-5.924473,0.66953397,-0.69726247,18.456049,18.917469,-0.5188715,0.30860636,0.22747836,0.16316359,0.09790961,inf,inf,inf,inf,1,1,1,1,2,0,2,2,1,1,0
2509787636,21185227,32.387482,-117.07643779999998,96.92494,-12.301524,-20.554499,-0.009936107,-0.0021225822,0.0,0.09090695,-0.26819134,0.49424833,0.40999952,-0.046932053,-0.0029370706,0.062913015,0.93443114,-3.8151739,1.3874232,-0.705503,18.456049,18.869114,-0.49424833,0.32123062,0.22864959,0.16802132,0.09922709,inf,inf,inf,inf,1,1,1,1,2,0,2,2,1,1,0
2509891508,21185227,32.387482,-117.07643779999998,96.98151,-12.275637,-20.506247,-0.009936107,-0.0021225822,0.0,0.012001318,-0.2316205,0.49983826,0.42216367,-0.046932053,-0.0029370706,0.062913015,-8.720638,3.988967,-0.1471781,-0.7124649,18.456049,18.820862,-0.49983826,0.31008407,0.22885707,0.16302559,0.09962092,inf,inf,inf,inf,1,1,1,1,2,0,2,2,1,1,0
2509995589,21185227,32.387482,-117.07643779999998,97.0212,-12.258252,-20.454967,-0.009936107,-0.0021225822,0.0,-0.054410018,-0.22465359,0.48232928,0.4143301,-0.046932053,-0.0029370706,0.062913015,-2.1882122,2.2290382,-0.75831515,-0.7172185,18.456049,18.769583,-0.48232928,0.3223578,0.22838582,0.16775317,0.10057884,inf,inf,inf,inf,1,1,1,1,2,0,2,2,1,1,0
2510091593,21185227,32.387482,-117.07643779999998,97.05836,-12.233993,-20.402155,-0.009936107,-0.0021225822,0.0,-0.10626885,-0.23443086,0.48262632,0.42815384,-0.046932053,-0.0029370706,0.062913015,-4.3398724,-1.3804665,1.9262719,-0.72140527,18.456049,18.71677,-0.48262632,0.31018728,0.22812647,0.16237436,0.10075004,inf,inf,inf,inf,1,1,1,1,2,0,2,2,1,1,0
2510196404,21185227,32.387482,-117.07643779999998,97.08231,-12.21872,-20.343134,-0.009936107,-0.0021225822,0.0,-0.15835786,-0.23489222,0.4585162,0.419626,-0.046932053,-0.0029370706,0.062913015,-0.89461267,4.0096645,-0.5443885,-0.72587377,18.456049,18.65775,-0.4585162,0.32282192,0.22803216,0.16719039,0.10174593,inf,inf,inf,inf,1,1,1,1,2,0,2,2,1,1,0
2510300316,21185227,32.387482,-117.07643779999998,97.10065,-12.196882,-20.286892,-0.009936107,-0.0021225822,0.0,-0.18682124,-0.27279806,0.43711668,0.41222993,-0.046932053,-0.0029370706,0.062913015,-2.3726895,-1.8009537,0.43265766,-0.7299988,18.456049,18.601507,-0.43711668,0.31138855,0.22844817,0.16214047,0.10209438,inf,inf,inf,inf,1,1,1,1,2,0,2,2,1,1,0
2510396322,21185227,32.387482,-117.07643779999998,97.10591,-12.182361,-20.234478,-0.009936107,-0.0021225822,0.0,-0.2568718,-0.25148702,0.4479216,0.43530953,-0.046932053,-0.0029370706,0.062913015,-1.920558,4.3093276,0.49171677,-0.7334298,18.456049,18.549093,-0.4479216,0.3231516,0.22797501,0.16669862,0.10288354,inf,inf,inf,inf,1,1,1,1,2,0,2,2,1,1,0
2510500334,21185227,32.387482,-117.07643779999998,97.103325,-12.153444,-20.175085,-0.009936107,-0.0021225822,0.0,-0.2815475,-0.27086633,0.42838612,0.43020153,-0.046932053,-0.0029370706,0.062913015,-0.78043,0.52442706,-0.26070425,-0.7361373,18.456049,18.4897,-0.42838612,0.31200784,0.22846657,0.16183832,0.10319209,inf,inf,inf,inf,1,1,1,1,2,0,2,2,1,1,0
2510605277,21185227,32.387482,-117.07643779999998,97.08753,-12.136976,-20.114956,-0.009936107,-0.0021225822,0.0,-0.34601563,-0.27334177,0.44575062,0.4600722,-0.046932053,-0.0029370706,0.062913015,-3.442176,3.5718043,-1.3542417,-0.73886347,18.456049,18.429571,-0.44575062,0.32465598,0.23006894,0.16663413,0.1044567,inf,inf,inf,inf,1,1,1,1,2,0,2,2,1,1,0
2510701196,21185227,32.387482,-117.07643779999998,97.06806,-12.11594,-20.058413,-0.009936107,-0.0021225822,0.0,-0.36084092,-0.28064886,0.4226652,0.449957,-0.046932053,-0.0029370706,0.062913015,-7.18153,5.00045,-0.7914957,-0.7408463,18.456049,18.373028,-0.4226652,0.31247526,0.2299485,0.1614788,0.104478255,inf,inf,inf,inf,1,1,1,1,2,0,2,2,1,1,0
2510805185,21185227,32.387482,-117.07643779999998,97.03883,-12.106776,-19.996243,-0.009936107,-0.0021225822,0.0,-0.37972018,-0.29466662,0.42479476,0.46633142,-0.046932053,-0.0029370706,0.062913015,0.56325215,-1.2298893,-0.31037113,-0.74236226,18.456049,18.310858,-0.42479476,0.3252189,0.2316449,0.16636004,0.105692856,inf,inf,inf,inf,1,1,1,1,2,0,2,2,1,1,0
2510909116,21185227,32.387482,-117.07643779999998,97.0118,-12.083904,-19.933237,-0.009936107,-0.0021225822,0.0,-0.38020515,-0.32781026,0.42559126,0.48089248,-0.046932053,-0.0029370706,0.062913015,2.3630943,-6.250659,0.009293605,-0.74418396,18.456049,18.247852,-0.42559126,0.31395617,0.23210496,0.16167675,0.10583949,inf,inf,inf,inf,1,1,1,1,2,0,2,2,1,1,0
2511005885,21185227,32.387482,-117.07643779999998,96.98052,-12.079102,-19.873743,-0.009936107,-0.0021225822,0.0,-0.40269378,-0.33086255,0.42641965,0.49368462,-0.046932053,-0.0029370706,0.062913015,-2.382765,-2.1010518,-0.7111825,-0.7450206,18.456049,18.188358,-0.42641965,0.32564402,0.23163822,0.16616559,0.106420785,inf,inf,inf,inf,1,1,1,1,2,0,2,2,1,1,0
2511110065,21185227,32.387482,-117.07643779999998,96.94299,-12.055662,-19.807913,-0.009936107,-0.0021225822,0.0,-0.4131026,-0.298783,0.40883493,0.4895681,-0.046932053,-0.0029370706,0.062913015,3.2614436,-1.2670091,-1.7128084,-0.7453674,18.456049,18.122528,-0.40883493,0.31434804,0.23215999,0.16144466,0.1065055,inf,inf,inf,inf,1,1,1,1,2,0,2,2,1,1,0
2511213878,21185227,32.387482,-117.07643779999998,96.90291,-12.049044,-19.742947,-0.009936107,-0.0021225822,0.0,-0.38964382,-0.32563958,0.39381927,0.4873809,-0.046932053,-0.0029370706,0.062913015,0.054040503,0.52984595,1.2934493,-0.74513817,18.456049,18.057562,-0.39381927,0.3271233,0.23398072,0.1663805,0.10764259,inf,inf,inf,inf,1,1,1,1,2,0,2,2,1,1,0
2511309898,21185227,32.387482,-117.07643779999998,96.86257,-12.032151,-19.68383,-0.009936107,-0.0021225822,0.0,-0.37214282,-0.36003107,0.36732134,0.4725563,-0.046932053,-0.0029370706,0.062913015,0.53595304,-5.881227,-0.26997435,-0.7457572,18.456049,17.998446,-0.36732134,0.31463054,0.23385511,0.16126317,0.10743622,inf,inf,inf,inf,1,1,1,1,2,0,2,2,1,1,0
2511414717,21185227,32.387482,-117.07643779999998,96.81884,-12.030243,-19.62391,-0.009936107,-0.0021225822,0.0,-0.36312953,-0.3351183,0.34408838,0.45884165,-0.046932053,-0.0029370706,0.062913015,-0.6980745,2.3572443,-1.8811654,-0.7461786,18.456049,17.938526,-0.34408838,0.32729584,0.23403625,0.16625836,0.108091995,inf,inf,inf,inf,1,1,1,1,2,0,2,2,1,1,0
2511518815,21185227,32.387482,-117.07643779999998,96.77073,-12.01542,-19.56663,-0.009936107,-0.0021225822,0.0,-0.35746846,-0.33879828,0.3854991,0.504503,-0.046932053,-0.0029370706,0.062913015,-1.6527158,0.8885158,-0.66872317,-0.74639064,18.456049,17.881245,-0.3854991,0.3158675,0.23300575,0.1616449,0.107636124,inf,inf,inf,inf,1,1,1,1,2,0,2,2,1,1,0
2511614813,21185227,32.387482,-117.07643779999998,96.727745,-12.016189,-19.510305,-0.009936107,-0.0021225822,0.0,-0.3371019,-0.36840957,0.36170024,0.48743445,-0.046932053,-0.0029370706,0.062913015,1.8866355,-4.8647614,0.5014007,-0.7463304,18.456049,17.82492,-0.36170024,0.32757172,0.23422852,0.1661789,0.10846011,inf,inf,inf,inf,1,1,1,1,2,0,2,2,1,1,0
2511715518,21185227,32.387482,-117.07643779999998,96.67654,-11.999864,-19.455498,-0.009936107,-0.0021225822,0.0,-0.3261828,-0.3552949,0.3438899,0.47447205,-0.046932053,-0.0029370706,0.062913015,0.5748712,-1.0421606,1.8765934,-0.7466287,18.456049,17.770113,-0.3438899,0.3161026,0.23318915,0.16145422,0.107957,inf,inf,inf,inf,1,1,1,1,2,0,2,2,1,1,0
2511819639,21185227,32.387482,-117.07643779999998,96.62993,-12.0009365,-19.39771,-0.009936107,-0.0021225822,0.0,-0.27869797,-0.3844595,0.3398582,0.47697237,-0.046932053,-0.0029370706,0.062913015,1.8278451,-0.03552451,-1.268486,-0.747061,18.456049,17.712326,-0.3398582,0.3051929,0.23216379,0.15698908,0.10742154,inf,inf,inf,inf,1,1,1,1,2,0,2,2,1,1,0
2511923516,21185227,32.387482,-117.07643779999998,96.58159,-11.996077,-19.340033,-0.009936107,-0.0021225822,0.0,-0.24961247,-0.39015624,0.32305744,0.4672893,-0.046932053,-0.0029370706,0.062913015,-1.755161,1.1354074,-1.4637144,-0.747717,18.456049,17.654648,-0.32305744,0.31691515,0.23383138,0.16183059,0.10837694,inf,inf,inf,inf,1,1,1,1,2,0,2,2,1,1,0
2512027524,21185227,32.387482,-117.07643779999998,96.53881,-12.003171,-19.287733,-0.009936107,-0.0021225822,0.0,-0.22197786,-0.4029855,0.31279424,0.45921123,-0.046932053,-0.0029370706,0.062913015,-0.79144794,-0.7474364,-0.49473453,-0.7478525,18.456049,17.602348,-0.31279424,0.30602804,0.23435405,0.15736696,0.10816512,inf,inf,inf,inf,1,1,1,1,2,0,2,2,1,1,0
2512132374,21185227,32.387482,-117.07643779999998,96.49116,-12.001681,-19.240236,-0.009936107,-0.0021225822,0.0,-0.1988431,-0.4023475,0.31663287,0.46045408,-0.046932053,-0.0029370706,0.062913015,-2.2582424,-1.761167,1.3174307,-0.748017,18.456049,17.554852,-0.31663287,0.3181701,0.2362422,0.16239181,0.109087124,inf,inf,inf,inf,1,1,1,1,2,0,2,2,1,1,0
2512228418,21185227,32.387482,-117.07643779999998,96.45397,-12.009753,-19.198328,-0.009936107,-0.0021225822,0.0,-0.16155095,-0.3917623,0.31498992,0.45479715,-0.046932053,-0.0029370706,0.062913015,-2.8377848,0.13282174,0.9853926,-0.7476154,18.456049,17.512943,-0.31498992,0.30611694,0.23606905,0.15742774,0.108610965,inf,inf,inf,inf,1,1,1,1,2,0,2,2,1,1,0
2512332346,21185227,32.387482,-117.07643779999998,96.409706,-12.008331,-19.155994,-0.009936107,-0.0021225822,0.0,-0.13576728,-0.39428982,0.3191292,0.4518691,-0.046932053,-0.0029370706,0.062913015,-1.116501,1.6462171,-1.811931,-0.7471726,18.456049,17.47061,-0.3191292,0.3183333,0.23637475,0.1623881,0.10906882,inf,inf,inf,inf,1,1,1,1,2,0,2,2,1,1,0
2512436309,21185227,32.387482,-117.07643779999998,96.37111,-12.015977,-19.115582,-0.009936107,-0.0021225822,0.0,-0.083259836,-0.42830083,0.3148521,0.44014004,-0.046932053,-0.0029370706,0.062913015,2.789264,-4.968395,1.3788519,-0.74655104,18.456049,17.430197,-0.3148521,0.30743712,0.23680075,0.15794103,0.108749,inf,inf,inf,inf,1,1,1,1,2,0,2,2,1,1,0
2512541236,21185227,32.387482,-117.07643779999998,96.33159,-12.0251875,-19.075386,-0.009936107,-0.0021225822,0.0,-0.06374088,-0.4240586,0.3369634,0.45407885,-0.046932053,-0.0029370706,0.062913015,-3.222361,2.5542707,-1.1205385,-0.746138,18.456049,17.390001,-0.3369634,0.31963295,0.23862153,0.16300091,0.10955482,inf,inf,inf,inf,1,1,1,1,2,0,2,2,1,1,0
2512637222,21185227,32.387482,-117.07643779999998,96.29941,-12.03751,-19.037878,-0.009936107,-0.0021225822,0.0,-0.03685779,-0.43854728,0.3173645,0.42765078,-0.046932053,-0.0029370706,0.062913015,1.0861326,-5.1108713,-1.5651361,-0.7463118,18.456049,17.352493,-0.3173645,0.3076644,0.23829709,0.15810013,0.10896669,inf,inf,inf,inf,1,1,1,1,2,0,2,2,1,1,0
2512741125,21185227,32.387482,-117.07643779999998,96.26082,-12.043641,-18.998016,-0.009936107,-0.0021225822,0.0,-0.027676128,-0.43017012,0.3527443,0.45542052,-0.046932053,-0.0029370706,0.062913015,0.53739804,0.83808905,0.25637785,-0.7466872,18.456049,17.312632,-0.3527443,0.3199601,0.2401665,0.16310394,0.10974639,inf,inf,inf,inf,1,1,1,1,2,0,2,2,1,1,0
2512845182,21185227,32.387482,-117.07643779999998,96.22589,-12.054805,-18.962027,-0.009936107,-0.0021225822,0.0,0.003083385,-0.4154937,0.35625613,0.44654036,-0.046932053,-0.0029370706,0.062913015,1.9654032,0.5626856,0.71483517,-0.74659204,18.456049,17.276642,-0.35625613,0.30895257,0.23871581,0.15861179,0.10885666,inf,inf,inf,inf,1,1,1,1,2,0,2,2,1,1,0
2512942045,21185227,32.387482,-117.07643779999998,96.19002,-12.063391,-18.92619,-0.009936107,-0.0021225822,0.0,0.0059615537,-0.4074465,0.37728092,0.45883313,-0.046932053,-0.0029370706,0.062913015,-0.1266111,2.6805286,-1.2848737,-0.745738,18.456049,17.240805,-0.37728092,0.32024425,0.23981777,0.1631552,0.10939822,inf,inf,inf,inf,1,1,1,1,2,0,2,2,1,1,0
2513045985,21185227,32.387482,-117.07643779999998,96.15756,-12.076059,-18.88375,-0.009936107,-0.0021225822,0.0,0.065320976,-0.4175335,0.369132,0.44581708,-0.046932053,-0.0029370706,0.062913015,1.8830403,-0.7414688,2.324399,-0.743874,18.456049,17.198366,-0.369132,0.30924806,0.24008241,0.15862969,0.108954646,inf,inf,inf,inf,1,1,1,1,2,0,2,2,1,1,0
2513149899,21185227,32.387482,-117.07643779999998,96.12527,-12.083883,-18.841993,-0.009936107,-0.0021225822,0.0,0.09037648,-0.4003957,0.34991756,0.4229663,-0.046932053,-0.0029370706,0.062913015,-3.6123226,4.3015623,0.75228494,-0.74265707,18.456049,17.156609,-0.34991756,0.32160166,0.2401456,0.16366647,0.10920127,inf,inf,inf,inf,1,1,1,1,2,0,2,2,1,1,0
2513245919,21185227,32.387482,-117.07643779999998,96.0982,-12.09228,-18.804583,-0.009936107,-0.0021225822,0.0,0.12061918,-0.40721163,0.37155178,0.44087595,-0.046932053,-0.0029370706,0.062913015,5.1117887,-4.111947,2.8281758,-0.74150324,18.456049,17.119198,-0.37155178,0.30973876,0.23971035,0.15887885,0.10854963,inf,inf,inf,inf,1,1,1,1,2,0,2,2,1,1,0
2513346784,21185227,32.387482,-117.07643779999998,96.066795,-12.096013,-18.764917,-0.009936107,-0.0021225822,0.0,0.13624246,-0.3793443,0.37759057,0.4410968,-0.046932053,-0.0029370706,0.062913015,2.1219594,-3.0114188,-5.6873872e-05,-0.74074036,18.456049,17.079533,-0.37759057,0.3220206,0.23971705,0.16397493,0.10878576,inf,inf,inf,inf,1,1,1,1,2,0,2,2,1,1,0
2513450790,21185227,32.387482,-117.07643779999998,96.04023,-12.102651,-18.726162,-0.009936107,-0.0021225822,0.0,0.15158752,-0.3666289,0.35862926,0.41628096,-0.046932053,-0.0029370706,0.062913015,-3.545939,3.9141488,-0.46737123,-0.7401601,18.456049,17.040777,-0.35862926,0.31107357,0.23995212,0.1593451,0.108331405,inf,inf,inf,inf,1,1,1,1,2,0,2,2,1,1,0
2513554794,21185227,32.387482,-117.07643779999998,96.01568,-12.108875,-18.69134,-0.009936107,-0.0021225822,0.0,0.15636273,-0.33191416,0.37751195,0.42536992,-0.046932053,-0.0029370706,0.062913015,-0.08283598,-2.4832804,-1.1748784,-0.74010646,18.456049,17.005955,-0.37751195,0.32307842,0.2413916,0.16435213,0.10898307,inf,inf,inf,inf,1,1,1,1,2,0,2,2,1,1,0
2513658746,21185227,32.387482,-117.07643779999998,95.98972,-12.111203,-18.657436,-0.009936107,-0.0021225822,0.0,0.20151174,-0.3259225,0.39260504,0.4290752,-0.046932053,-0.0029370706,0.062913015,4.9121366,-5.271546,2.0748417,-0.7406427,18.456049,16.972052,-0.39260504,0.31209522,0.23987308,0.15992954,0.10805879,inf,inf,inf,inf,1,1,1,1,2,0,2,2,1,1,0
2513755646,21185227,32.387482,-117.07643779999998,95.9706,-12.115911,-18.629725,-0.009936107,-0.0021225822,0.0,0.22162575,-0.32244712,0.37037846,0.3947079,-0.046932053,-0.0029370706,0.062913015,4.617741,-4.515634,-0.76084894,-0.74107856,18.456049,16.94434,-0.37037846,0.32356885,0.2409387,0.16448517,0.10854804,inf,inf,inf,inf,1,1,1,1,2,0,2,2,1,1,0
2513859502,21185227,32.387482,-117.07643779999998,95.95066,-12.121866,-18.605238,-0.009936107,-0.0021225822,0.0,0.23165324,-0.30749837,0.39221475,0.40080968,-0.046932053,-0.0029370706,0.062913015,2.6123438,-2.2681143,2.7797444,-0.74201524,18.456049,16.919853,-0.39221475,0.312536,0.2394843,0.16005084,0.1076341,inf,inf,inf,inf,1,1,1,1,2,0,2,2,1,1,0
2513955549,21185227,32.387482,-117.07643779999998,95.93145,-12.125725,-18.58104,-0.009936107,-0.0021225822,0.0,0.23952724,-0.26992878,0.39404702,0.3887508,-0.046932053,-0.0029370706,0.062913015,4.6442275,-3.3857462,-1.3183984,-0.74351615,18.456049,16.895655,-0.39404702,0.32403296,0.24048091,0.16482724,0.10809323,inf,inf,inf,inf,1,1,1,1,2,0,2,2,1,1,0
2514059516,21185227,32.387482,-117.07643779999998,95.91406,-12.131326,-18.560217,-0.009936107,-0.0021225822,0.0,0.2789692,-0.3034035,0.3860836,0.36331162,-0.046932053,-0.0029370706,0.062913015,2.0026982,-4.9025116,2.4797373,-0.74491584,18.456049,16.874832,-0.3860836,0.31277683,0.24066007,0.16007037,0.10762623,inf,inf,inf,inf,1,1,1,1,2,0,2,2,1,1,0
2514164387,21185227,32.387482,-117.07643779999998,95.899666,-12.13935,-18.544058,-0.009936107,-0.0021225822,0.0,0.29383156,-0.29304805,0.38592884,0.34387544,-0.046932053,-0.0029370706,0.062913015,-3.8771389,7.1096644,0.0058153933,-0.746562,18.456049,16.858673,-0.38592884,0.32526386,0.24059126,0.16529298,0.107819475,inf,inf,inf,inf,1,1,1,1,2,0,2,2,1,1,0
2514260417,21185227,32.387482,-117.07643779999998,95.887,-12.150142,-18.52602,-0.009936107,-0.0021225822,0.0,0.341289,-0.33660716,0.38629004,0.33124277,-0.046932053,-0.0029370706,0.062913015,2.645941,-6.716327,0.47219786,-0.7477354,18.456049,16.840635,-0.38629004,0.31312633,0.24019691,0.16037868,0.10719055,inf,inf,inf,inf,1,1,1,1,2,0,2,2,1,1,0
2514364322,21185227,32.387482,-117.07643779999998,95.876656,-12.165468,-18.503649,-0.009936107,-0.0021225822,0.0,0.35301122,-0.32682687,0.41774267,0.35179654,-0.046932053,-0.0029370706,0.062913015,1.4790074,-3.1737013,1.3262097,-0.7490655,18.456049,16.818264,-0.41774267,0.32563773,0.2401611,0.16554005,0.10740128,inf,inf,inf,inf,1,1,1,1,2,0,2,2,1,1,0
2514468395,21185227,32.387482,-117.07643779999998,95.86549,-12.178626,-18.478971,-0.009936107,-0.0021225822,0.0,0.34448743,-0.3009106,0.42755663,0.35173762,-0.046932053,-0.0029370706,0.062913015,-2.407387,4.3021603,-1.2992992,-0.7506827,18.456049,16.793587,-0.42755663,0.31434298,0.23867507,0.16096401,0.10652396,inf,inf,inf,inf,1,1,1,1,2,0,2,2,1,1,0
2514565229,21185227,32.387482,-117.07643779999998,95.85948,-12.191985,-18.457363,-0.009936107,-0.0021225822,0.0,0.37499142,-0.3068042,0.41649452,0.33138707,-0.046932053,-0.0029370706,0.062913015,-3.702359,-1.9476436,0.4771621,-0.7519683,18.456049,16.771978,-0.41649452,0.3259275,0.23969539,0.16552031,0.10700511,inf,inf,inf,inf,1,1,1,1,2,0,2,2,1,1,0
2514669200,21185227,32.387482,-117.07643779999998,95.85145,-12.20446,-18.43732,-0.009936107,-0.0021225822,0.0,0.38218763,-0.2757522,0.4022981,0.30594438,-0.046932053,-0.0029370706,0.062913015,-6.7986083,4.663599,-1.6057873,-0.7527631,18.456049,16.751936,-0.4022981,0.3147288,0.2383028,0.16096617,0.10616054,inf,inf,inf,inf,1,1,1,1,2,0,2,2,1,1,0
2514773195,21185227,32.387482,-117.07643779999998,95.84678,-12.21642,-18.417065,-0.009936107,-0.0021225822,0.0,0.39258868,-0.24561894,0.41998538,0.31418145,-0.046932053,-0.0029370706,0.062913015,0.8503643,-0.5958598,-0.842073,-0.75244164,18.456049,16.73168,-0.41998538,0.3273208,0.23830473,0.16610956,0.106400855,inf,inf,inf,inf,1,1,1,1,2,0,2,2,1,1,0
2514869199,21185227,32.387482,-117.07643779999998,95.838844,-12.22272,-18.398325,-0.009936107,-0.0021225822,0.0,0.394252,-0.2220071,0.45831698,0.34169805,-0.046932053,-0.0029370706,0.062913015,-0.5156493,-0.1727107,1.7625043,-0.75272053,18.456049,16.71294,-0.45831698,0.3149158,0.23960944,0.1611019,0.10627652,inf,inf,inf,inf,1,1,1,1,2,0,2,2,1,1,0
2514973911,21185227,32.387482,-117.07643779999998,95.8343,-12.228737,-18.376854,-0.009936107,-0.0021225822,0.0,0.3891421,-0.17687993,0.4439303,0.31656995,-0.046932053,-0.0029370706,0.062913015,-1.3073684,7.2674174,-2.7511752,-0.7522914,18.456049,16.69147,-0.4439303,0.3275136,0.23954202,0.16596612,0.10649062,inf,inf,inf,inf,1,1,1,1,2,0,2,2,1,1,0
2515077983,21185227,32.387482,-117.07643779999998,95.82559,-12.234738,-18.35426,-0.009936107,-0.0021225822,0.0,0.39456493,-0.19131167,0.44315174,0.30872917,-0.046932053,-0.0029370706,0.062913015,0.78555155,-2.2059698,-0.61784625,-0.75198615,18.456049,16.668875,-0.44315174,0.3160582,0.238127,0.16113366,0.105662346,inf,inf,inf,inf,1,1,1,1,2,0,2,2,1,1,0
2515173986,21185227,32.387482,-117.07643779999998,95.82125,-12.241819,-18.330029,-0.009936107,-0.0021225822,0.0,0.39224505,-0.17237024,0.45252246,0.31464353,-0.046932053,-0.0029370706,0.062913015,-1.3488457,5.000044,0.35387358,-0.7521433,18.456049,16.644644,-0.45252246,0.3277092,0.23915224,0.1659699,0.10616149,inf,inf,inf,inf,1,1,1,1,2,0,2,2,1,1,0
2515278707,21185227,32.387482,-117.07643779999998,95.81302,-12.248548,-18.301401,-0.009936107,-0.0021225822,0.0,0.3852148,-0.14681713,0.44980466,0.3101424,-0.046932053,-0.0029370706,0.062913015,-3.4050293,5.4162073,-1.1986363,-0.75226575,18.456049,16.616016,-0.44980466,0.3160728,0.23774143,0.1611797,0.105366014,inf,inf,inf,inf,1,1,1,1,2,0,2,2,1,1,0
2515382718,21185227,32.387482,-117.07643779999998,95.80932,-12.25671,-18.268711,-0.009936107,-0.0021225822,0.0,0.40748608,-0.17421763,0.47176442,0.3330217,-0.046932053,-0.0029370706,0.062913015,0.58779156,-3.1710107,-1.1329306,-0.7521325,18.456049,16.583326,-0.47176442,0.32871866,0.23774934,0.1662362,0.10562693,inf,inf,inf,inf,1,1,1,1,2,0,2,2,1,1,0
